sub_n, computer_n, disp_cond, effect, set, distance, diag, block_n, trial_n, h1, w1, h2, w2, h3, w3, choice, rt 
174, 2, triangle, practice, NA, 999, 999, 0, 1, 99, 162, 147, 70, 128, 118, 1, 6.0298
174, 2, triangle, practice, NA, 999, 999, 0, 2, 175, 174, 159, 63, 181, 121, 1, 3.18888
174, 2, triangle, practice, NA, 999, 999, 0, 3, 92, 147, 152, 155, 71, 168, 2, 4.17425
174, 2, triangle, filler, NA, 999, 999, 1, 1, 181, 193, 173, 163, 71, 193, 1, 2.05388
174, 2, triangle, attraction, a-b-db, 9, 1, 1, 2, 135, 60, 57, 129, 60, 135, 3, 11.518
174, 2, triangle, attraction, a-b-db, 5, 1, 1, 3, 135, 60, 58, 132, 60, 135, 3, 3.254
174, 2, triangle, attraction, a-b-db, 14, 3, 1, 4, 195, 120, 120, 195, 111, 181, 2, 10.5981
174, 2, triangle, attraction, a-b-da, 14, 3, 1, 5, 120, 195, 195, 120, 181, 111, 1, 3.14291
174, 2, triangle, attraction, a-b-da, 9, 3, 1, 6, 186, 114, 195, 120, 120, 195, 3, 1.94781
174, 2, triangle, attraction, a-b-da, 5, 1, 1, 7, 132, 58, 60, 135, 135, 60, 2, 2.67231
174, 2, triangle, attraction, a-b-db, 5, 2, 1, 8, 88, 161, 90, 165, 165, 90, 2, 4.28673
174, 2, triangle, filler, NA, 999, 999, 1, 9, 72, 67, 187, 104, 123, 148, 3, 2.16601
174, 2, triangle, filler, NA, 999, 999, 1, 10, 126, 71, 176, 149, 88, 170, 2, 1.80107
174, 2, triangle, attraction, a-b-db, 14, 1, 1, 11, 60, 135, 135, 60, 56, 125, 1, 3.03451
174, 2, triangle, filler, NA, 999, 999, 1, 12, 170, 130, 63, 72, 76, 194, 1, 2.00171
174, 2, triangle, attraction, a-b-da, 2, 3, 1, 13, 120, 195, 193, 119, 195, 120, 3, 1.83538
174, 2, triangle, filler, NA, 999, 999, 1, 14, 148, 108, 109, 146, 118, 147, 2, 13.5097
174, 2, triangle, attraction, a-b-da, 5, 3, 1, 15, 120, 195, 190, 117, 195, 120, 1, 3.82263
174, 2, triangle, attraction, a-b-db, 9, 2, 1, 16, 90, 165, 165, 90, 86, 157, 3, 1.60115
174, 2, triangle, attraction, a-b-da, 5, 2, 1, 17, 161, 88, 90, 165, 165, 90, 3, 3.0737
174, 2, triangle, attraction, a-b-db, 9, 3, 1, 18, 195, 120, 114, 186, 120, 195, 1, 1.81779
174, 2, triangle, attraction, a-b-db, 2, 2, 1, 19, 89, 163, 90, 165, 165, 90, 3, 2.54718
174, 2, triangle, attraction, a-b-db, 2, 1, 1, 20, 60, 135, 59, 134, 135, 60, 1, 4.86608
174, 2, triangle, filler, NA, 999, 999, 1, 21, 165, 167, 175, 146, 124, 84, 1, 1.63816
174, 2, triangle, attraction, a-b-da, 9, 1, 1, 22, 135, 60, 129, 57, 60, 135, 3, 3.86235
174, 2, triangle, attraction, a-b-db, 14, 2, 1, 23, 165, 90, 83, 153, 90, 165, 1, 2.21473
174, 2, triangle, attraction, a-b-db, 5, 3, 1, 24, 117, 190, 120, 195, 195, 120, 2, 1.76789
174, 2, triangle, attraction, a-b-da, 14, 1, 1, 25, 125, 56, 135, 60, 60, 135, 3, 3.74749
174, 2, triangle, attraction, a-b-da, 14, 2, 1, 26, 153, 83, 90, 165, 165, 90, 3, 2.14466
174, 2, triangle, attraction, a-b-db, 2, 3, 1, 27, 195, 120, 119, 193, 120, 195, 1, 5.41987
174, 2, triangle, filler, NA, 999, 999, 1, 28, 181, 100, 120, 63, 174, 156, 3, 1.48239
174, 2, triangle, attraction, a-b-da, 2, 2, 1, 29, 90, 165, 163, 89, 165, 90, 3, 4.03676
174, 2, triangle, filler, NA, 999, 999, 1, 30, 58, 126, 163, 167, 59, 118, 2, 1.53982
174, 2, triangle, attraction, a-b-da, 9, 2, 1, 31, 165, 90, 90, 165, 157, 86, 2, 3.35394
174, 2, triangle, filler, NA, 999, 999, 1, 32, 158, 69, 170, 172, 114, 149, 2, 1.16973
174, 2, triangle, filler, NA, 999, 999, 1, 33, 154, 122, 56, 145, 117, 74, 1, 1.53286
174, 2, triangle, attraction, a-b-da, 2, 1, 1, 34, 134, 59, 60, 135, 135, 60, 2, 1.42005
174, 2, triangle, attraction, a-b-da, 2, 3, 2, 1, 193, 119, 195, 120, 120, 195, 1, 5.07671
174, 2, triangle, attraction, a-b-db, 14, 1, 2, 2, 135, 60, 60, 135, 56, 125, 2, 1.82163
174, 2, triangle, attraction, a-b-db, 5, 2, 2, 3, 90, 165, 88, 161, 165, 90, 3, 4.38936
174, 2, triangle, attraction, a-b-db, 2, 2, 2, 4, 89, 163, 90, 165, 165, 90, 1, 5.19986
174, 2, triangle, attraction, a-b-da, 9, 2, 2, 5, 90, 165, 157, 86, 165, 90, 1, 2.10464
174, 2, triangle, attraction, a-b-db, 2, 1, 2, 6, 135, 60, 60, 135, 59, 134, 2, 2.90873
174, 2, triangle, attraction, a-b-db, 14, 2, 2, 7, 90, 165, 83, 153, 165, 90, 1, 2.17187
174, 2, triangle, attraction, a-b-db, 5, 1, 2, 8, 135, 60, 60, 135, 58, 132, 1, 2.73596
174, 2, triangle, filler, NA, 999, 999, 2, 9, 149, 143, 98, 65, 168, 164, 3, 1.31532
174, 2, triangle, attraction, a-b-da, 5, 2, 2, 10, 90, 165, 165, 90, 161, 88, 1, 2.14405
174, 2, triangle, filler, NA, 999, 999, 2, 11, 94, 180, 89, 151, 138, 143, 3, 1.41205
174, 2, triangle, filler, NA, 999, 999, 2, 12, 57, 178, 62, 107, 62, 108, 1, 1.37594
174, 2, triangle, filler, NA, 999, 999, 2, 13, 187, 76, 139, 132, 187, 170, 3, 1.87626
174, 2, triangle, filler, NA, 999, 999, 2, 14, 80, 133, 100, 133, 95, 170, 3, 1.31362
174, 2, triangle, attraction, a-b-da, 9, 1, 2, 15, 60, 135, 135, 60, 129, 57, 1, 2.74564
174, 2, triangle, attraction, a-b-da, 14, 3, 2, 16, 195, 120, 120, 195, 181, 111, 1, 1.60437
174, 2, triangle, attraction, a-b-db, 2, 3, 2, 17, 119, 193, 195, 120, 120, 195, 3, 2.96537
174, 2, triangle, attraction, a-b-db, 14, 3, 2, 18, 111, 181, 120, 195, 195, 120, 2, 2.32946
174, 2, triangle, attraction, a-b-da, 5, 1, 2, 19, 135, 60, 60, 135, 132, 58, 1, 2.03892
174, 2, triangle, attraction, a-b-db, 5, 3, 2, 20, 117, 190, 120, 195, 195, 120, 3, 1.22423
174, 2, triangle, attraction, a-b-db, 9, 1, 2, 21, 60, 135, 57, 129, 135, 60, 3, 3.16187
174, 2, triangle, filler, NA, 999, 999, 2, 22, 67, 136, 62, 87, 65, 97, 1, 2.53955
174, 2, triangle, filler, NA, 999, 999, 2, 23, 167, 164, 139, 186, 88, 145, 1, 1.2819
174, 2, triangle, attraction, a-b-da, 5, 3, 2, 24, 195, 120, 190, 117, 120, 195, 1, 3.0155
174, 2, triangle, attraction, a-b-da, 2, 1, 2, 25, 60, 135, 134, 59, 135, 60, 3, 1.44989
174, 2, triangle, attraction, a-b-db, 9, 2, 2, 26, 86, 157, 165, 90, 90, 165, 3, 3.49093
174, 2, triangle, attraction, a-b-da, 2, 2, 2, 27, 165, 90, 90, 165, 163, 89, 2, 2.98259
174, 2, triangle, filler, NA, 999, 999, 2, 28, 176, 58, 81, 111, 163, 162, 3, 1.3389
174, 2, triangle, attraction, a-b-da, 14, 2, 2, 29, 153, 83, 90, 165, 165, 90, 1, 1.08744
174, 2, triangle, attraction, a-b-da, 14, 1, 2, 30, 60, 135, 125, 56, 135, 60, 3, 1.59863
174, 2, triangle, filler, NA, 999, 999, 2, 31, 96, 77, 70, 165, 117, 65, 2, 1.34307
174, 2, triangle, attraction, a-b-da, 9, 3, 2, 32, 186, 114, 195, 120, 120, 195, 3, 1.43768
174, 2, triangle, filler, NA, 999, 999, 2, 33, 63, 75, 167, 88, 174, 123, 3, 1.58009
174, 2, triangle, attraction, a-b-db, 9, 3, 2, 34, 195, 120, 114, 186, 120, 195, 1, 1.45133
174, 2, triangle, attraction, a-b-db, 2, 2, 3, 1, 165, 90, 89, 163, 90, 165, 3, 1.75392
174, 2, triangle, attraction, a-b-da, 9, 2, 3, 2, 157, 86, 165, 90, 90, 165, 1, 2.0684
174, 2, triangle, attraction, a-b-da, 5, 1, 3, 3, 132, 58, 135, 60, 60, 135, 3, 1.35682
174, 2, triangle, attraction, a-b-da, 2, 2, 3, 4, 90, 165, 163, 89, 165, 90, 3, 1.22723
174, 2, triangle, attraction, a-b-db, 14, 2, 3, 5, 83, 153, 90, 165, 165, 90, 2, 1.38723
174, 2, triangle, attraction, a-b-db, 5, 1, 3, 6, 135, 60, 58, 132, 60, 135, 3, 2.3422
174, 2, triangle, attraction, a-b-da, 5, 2, 3, 7, 165, 90, 90, 165, 161, 88, 3, 1.69803
174, 2, triangle, attraction, a-b-db, 5, 3, 3, 8, 195, 120, 117, 190, 120, 195, 3, 1.33655
174, 2, triangle, attraction, a-b-da, 9, 3, 3, 9, 195, 120, 120, 195, 186, 114, 2, 2.98365
174, 2, triangle, filler, NA, 999, 999, 3, 10, 128, 190, 83, 111, 66, 106, 1, 1.2325
174, 2, triangle, filler, NA, 999, 999, 3, 11, 172, 111, 183, 132, 165, 124, 3, 1.19507
174, 2, triangle, attraction, a-b-db, 9, 1, 3, 12, 60, 135, 135, 60, 57, 129, 2, 2.93139
174, 2, triangle, attraction, a-b-db, 9, 2, 3, 13, 165, 90, 90, 165, 86, 157, 2, 1.9771
174, 2, triangle, attraction, a-b-da, 14, 2, 3, 14, 165, 90, 90, 165, 153, 83, 1, 2.10158
174, 2, triangle, attraction, a-b-db, 14, 3, 3, 15, 111, 181, 120, 195, 195, 120, 3, 1.48991
174, 2, triangle, attraction, a-b-db, 2, 1, 3, 16, 60, 135, 59, 134, 135, 60, 3, 1.35994
174, 2, triangle, attraction, a-b-da, 2, 3, 3, 17, 193, 119, 120, 195, 195, 120, 2, 1.14058
174, 2, triangle, attraction, a-b-da, 14, 1, 3, 18, 125, 56, 135, 60, 60, 135, 1, 1.47392
174, 2, triangle, filler, NA, 999, 999, 3, 19, 155, 161, 109, 73, 144, 73, 1, 1.78627
174, 2, triangle, filler, NA, 999, 999, 3, 20, 112, 163, 121, 142, 75, 58, 1, 3.13089
174, 2, triangle, filler, NA, 999, 999, 3, 21, 180, 68, 131, 103, 160, 192, 3, 1.25483
174, 2, triangle, filler, NA, 999, 999, 3, 22, 131, 150, 76, 108, 112, 165, 1, 2.51873
174, 2, triangle, attraction, a-b-da, 9, 1, 3, 23, 129, 57, 60, 135, 135, 60, 2, 3.72536
174, 2, triangle, attraction, a-b-da, 2, 1, 3, 24, 60, 135, 135, 60, 134, 59, 3, 1.51388
174, 2, triangle, attraction, a-b-db, 2, 3, 3, 25, 120, 195, 195, 120, 119, 193, 1, 2.89737
174, 2, triangle, filler, NA, 999, 999, 3, 26, 105, 108, 76, 158, 165, 103, 3, 1.56655
174, 2, triangle, attraction, a-b-db, 5, 2, 3, 27, 90, 165, 165, 90, 88, 161, 1, 3.0888
174, 2, triangle, attraction, a-b-db, 14, 1, 3, 28, 135, 60, 60, 135, 56, 125, 1, 3.18311
174, 2, triangle, attraction, a-b-da, 5, 3, 3, 29, 195, 120, 120, 195, 190, 117, 2, 1.60263
174, 2, triangle, filler, NA, 999, 999, 3, 30, 149, 98, 176, 100, 170, 109, 3, 1.4783
174, 2, triangle, filler, NA, 999, 999, 3, 31, 165, 141, 192, 70, 156, 81, 1, 2.59081
174, 2, triangle, filler, NA, 999, 999, 3, 32, 69, 74, 189, 102, 181, 70, 2, 1.64628
174, 2, triangle, attraction, a-b-da, 14, 3, 3, 33, 120, 195, 195, 120, 181, 111, 2, 3.18358
174, 2, triangle, attraction, a-b-db, 9, 3, 3, 34, 114, 186, 120, 195, 195, 120, 3, 1.46596
174, 2, triangle, attraction, a-b-db, 14, 1, 4, 1, 56, 125, 60, 135, 135, 60, 3, 2.9865
174, 2, triangle, attraction, a-b-da, 9, 2, 4, 2, 90, 165, 157, 86, 165, 90, 3, 2.02047
174, 2, triangle, filler, NA, 999, 999, 4, 3, 106, 99, 173, 86, 112, 101, 2, 1.61257
174, 2, triangle, filler, NA, 999, 999, 4, 4, 145, 93, 116, 93, 135, 78, 1, 3.46982
174, 2, triangle, attraction, a-b-db, 9, 1, 4, 5, 135, 60, 57, 129, 60, 135, 1, 3.25408
174, 2, triangle, attraction, a-b-db, 5, 2, 4, 6, 88, 161, 165, 90, 90, 165, 3, 3.05234
174, 2, triangle, attraction, a-b-db, 2, 2, 4, 7, 89, 163, 165, 90, 90, 165, 3, 2.86863
174, 2, triangle, attraction, a-b-db, 5, 3, 4, 8, 117, 190, 195, 120, 120, 195, 3, 1.86912
174, 2, triangle, filler, NA, 999, 999, 4, 9, 80, 120, 104, 97, 89, 194, 3, 1.52422
174, 2, triangle, attraction, a-b-da, 9, 1, 4, 10, 135, 60, 129, 57, 60, 135, 1, 1.28872
174, 2, triangle, filler, NA, 999, 999, 4, 11, 60, 79, 135, 85, 110, 158, 3, 1.29526
174, 2, triangle, attraction, a-b-db, 2, 1, 4, 12, 135, 60, 59, 134, 60, 135, 1, 6.91268
174, 2, triangle, attraction, a-b-da, 2, 1, 4, 13, 134, 59, 135, 60, 60, 135, 3, 2.53095
174, 2, triangle, attraction, a-b-da, 5, 3, 4, 14, 120, 195, 190, 117, 195, 120, 3, 4.2751
174, 2, triangle, attraction, a-b-da, 5, 2, 4, 15, 90, 165, 165, 90, 161, 88, 2, 2.01535
174, 2, triangle, attraction, a-b-db, 9, 3, 4, 16, 120, 195, 114, 186, 195, 120, 3, 2.30478
174, 2, triangle, attraction, a-b-db, 5, 1, 4, 17, 135, 60, 58, 132, 60, 135, 2, 3.222
174, 2, triangle, filler, NA, 999, 999, 4, 18, 174, 140, 134, 119, 78, 116, 1, 1.46294
174, 2, triangle, attraction, a-b-db, 14, 2, 4, 19, 83, 153, 90, 165, 165, 90, 3, 2.48768
174, 2, triangle, filler, NA, 999, 999, 4, 20, 71, 155, 158, 74, 81, 133, 3, 3.37195
174, 2, triangle, attraction, a-b-da, 2, 2, 4, 21, 165, 90, 90, 165, 163, 89, 2, 3.1931
174, 2, triangle, filler, NA, 999, 999, 4, 22, 129, 125, 78, 137, 146, 86, 1, 1.40255
174, 2, triangle, attraction, a-b-da, 14, 1, 4, 23, 125, 56, 60, 135, 135, 60, 3, 3.1993
174, 2, triangle, attraction, a-b-da, 14, 2, 4, 24, 90, 165, 165, 90, 153, 83, 1, 2.81376
174, 2, triangle, filler, NA, 999, 999, 4, 25, 78, 132, 111, 133, 67, 74, 2, 1.51921
174, 2, triangle, attraction, a-b-db, 2, 3, 4, 26, 119, 193, 120, 195, 195, 120, 2, 2.73433
174, 2, triangle, filler, NA, 999, 999, 4, 27, 126, 183, 142, 118, 101, 117, 1, 1.45878
174, 2, triangle, attraction, a-b-da, 9, 3, 4, 28, 195, 120, 186, 114, 120, 195, 1, 1.42603
174, 2, triangle, attraction, a-b-da, 5, 1, 4, 29, 60, 135, 135, 60, 132, 58, 3, 1.89449
174, 2, triangle, attraction, a-b-db, 14, 3, 4, 30, 195, 120, 120, 195, 111, 181, 1, 1.7051
174, 2, triangle, filler, NA, 999, 999, 4, 31, 140, 195, 111, 131, 99, 79, 1, 1.09025
174, 2, triangle, attraction, a-b-da, 2, 3, 4, 32, 120, 195, 195, 120, 193, 119, 3, 1.18461
174, 2, triangle, attraction, a-b-da, 14, 3, 4, 33, 181, 111, 195, 120, 120, 195, 2, 1.32221
174, 2, triangle, attraction, a-b-db, 9, 2, 4, 34, 165, 90, 90, 165, 86, 157, 1, 4.13505
