sub_n, computer_n, disp_cond, effect, set, distance, diag, block_n, trial_n, h1, w1, h2, w2, h3, w3, choice, rt 
470, 5, triangle, practice, NA, 999, 999, 0, 1, 81, 130, 87, 163, 109, 127, 2, 3.82703
470, 5, triangle, practice, NA, 999, 999, 0, 2, 159, 179, 115, 115, 160, 83, 1, 2.38044
470, 5, triangle, practice, NA, 999, 999, 0, 3, 90, 71, 157, 184, 162, 81, 2, 1.8559
470, 5, triangle, attraction, a-b-da, 14, 2, 1, 1, 165, 90, 153, 83, 90, 165, 3, 6.13739
470, 5, triangle, attraction, a-b-db, 5, 3, 1, 2, 195, 120, 117, 190, 120, 195, 2, 7.15162
470, 5, triangle, attraction, a-b-da, 2, 3, 1, 3, 193, 119, 120, 195, 195, 120, 2, 5.69296
470, 5, triangle, filler, NA, 999, 999, 1, 4, 63, 98, 108, 99, 173, 71, 3, 37.1973
470, 5, triangle, attraction, a-b-da, 2, 1, 1, 5, 135, 60, 60, 135, 134, 59, 2, 22.35
470, 5, triangle, attraction, a-b-db, 9, 1, 1, 6, 60, 135, 57, 129, 135, 60, 1, 6.72928
470, 5, triangle, filler, NA, 999, 999, 1, 7, 124, 137, 148, 167, 90, 66, 2, 1.92082
470, 5, triangle, filler, NA, 999, 999, 1, 8, 142, 112, 152, 189, 172, 82, 2, 1.35801
470, 5, triangle, filler, NA, 999, 999, 1, 9, 143, 87, 131, 81, 97, 88, 1, 1.80283
470, 5, triangle, filler, NA, 999, 999, 1, 10, 130, 172, 78, 97, 59, 63, 1, 1.92428
470, 5, triangle, attraction, a-b-db, 14, 1, 1, 11, 135, 60, 60, 135, 56, 125, 2, 4.6133
470, 5, triangle, attraction, a-b-db, 14, 2, 1, 12, 165, 90, 83, 153, 90, 165, 3, 2.72431
470, 5, triangle, attraction, a-b-db, 2, 3, 1, 13, 195, 120, 120, 195, 119, 193, 2, 2.86799
470, 5, triangle, attraction, a-b-da, 5, 2, 1, 14, 90, 165, 165, 90, 161, 88, 2, 2.49911
470, 5, triangle, attraction, a-b-db, 2, 1, 1, 15, 60, 135, 59, 134, 135, 60, 2, 5.50598
470, 5, triangle, attraction, a-b-da, 9, 3, 1, 16, 186, 114, 195, 120, 120, 195, 2, 6.00911
470, 5, triangle, attraction, a-b-da, 9, 2, 1, 17, 165, 90, 90, 165, 157, 86, 2, 2.68398
470, 5, triangle, attraction, a-b-da, 5, 1, 1, 18, 60, 135, 132, 58, 135, 60, 1, 3.33083
470, 5, triangle, attraction, a-b-da, 14, 1, 1, 19, 60, 135, 135, 60, 125, 56, 1, 2.98671
470, 5, triangle, attraction, a-b-da, 14, 3, 1, 20, 120, 195, 195, 120, 181, 111, 1, 4.08377
470, 5, triangle, attraction, a-b-da, 9, 1, 1, 21, 60, 135, 135, 60, 129, 57, 1, 4.26623
470, 5, triangle, attraction, a-b-db, 2, 2, 1, 22, 165, 90, 90, 165, 89, 163, 2, 2.8573
470, 5, triangle, attraction, a-b-db, 9, 3, 1, 23, 114, 186, 195, 120, 120, 195, 2, 4.13274
470, 5, triangle, filler, NA, 999, 999, 1, 24, 111, 84, 160, 146, 75, 62, 2, 4.58642
470, 5, triangle, attraction, a-b-db, 5, 2, 1, 25, 165, 90, 90, 165, 88, 161, 2, 2.03602
470, 5, triangle, filler, NA, 999, 999, 1, 26, 189, 64, 164, 140, 95, 102, 2, 1.84385
470, 5, triangle, attraction, a-b-db, 5, 1, 1, 27, 58, 132, 60, 135, 135, 60, 2, 3.36694
470, 5, triangle, attraction, a-b-da, 5, 3, 1, 28, 195, 120, 120, 195, 190, 117, 2, 3.24177
470, 5, triangle, filler, NA, 999, 999, 1, 29, 152, 155, 142, 134, 56, 79, 1, 1.99574
470, 5, triangle, attraction, a-b-db, 14, 3, 1, 30, 111, 181, 195, 120, 120, 195, 2, 2.54245
470, 5, triangle, attraction, a-b-da, 2, 2, 1, 31, 163, 89, 165, 90, 90, 165, 3, 4.0775
470, 5, triangle, filler, NA, 999, 999, 1, 32, 146, 107, 59, 107, 120, 62, 1, 1.78022
470, 5, triangle, attraction, a-b-db, 9, 2, 1, 33, 86, 157, 90, 165, 165, 90, 2, 2.62359
470, 5, triangle, filler, NA, 999, 999, 1, 34, 57, 79, 140, 119, 126, 159, 3, 2.12941
470, 5, triangle, attraction, a-b-da, 14, 1, 2, 1, 60, 135, 125, 56, 135, 60, 1, 2.44525
470, 5, triangle, filler, NA, 999, 999, 2, 2, 175, 60, 175, 141, 165, 141, 2, 2.86339
470, 5, triangle, filler, NA, 999, 999, 2, 3, 72, 82, 112, 176, 123, 134, 2, 1.92067
470, 5, triangle, attraction, a-b-db, 14, 3, 2, 4, 195, 120, 120, 195, 111, 181, 1, 5.99857
470, 5, triangle, filler, NA, 999, 999, 2, 5, 95, 132, 57, 169, 193, 117, 3, 1.75909
470, 5, triangle, attraction, a-b-da, 2, 1, 2, 6, 135, 60, 134, 59, 60, 135, 3, 1.73964
470, 5, triangle, filler, NA, 999, 999, 2, 7, 161, 192, 89, 168, 173, 130, 1, 1.65949
470, 5, triangle, attraction, a-b-db, 5, 3, 2, 8, 195, 120, 120, 195, 117, 190, 2, 2.22713
470, 5, triangle, filler, NA, 999, 999, 2, 9, 85, 92, 161, 61, 146, 185, 3, 1.90903
470, 5, triangle, attraction, a-b-da, 9, 1, 2, 10, 129, 57, 135, 60, 60, 135, 3, 3.21308
470, 5, triangle, attraction, a-b-db, 5, 1, 2, 11, 58, 132, 60, 135, 135, 60, 1, 1.63762
470, 5, triangle, attraction, a-b-db, 2, 1, 2, 12, 60, 135, 59, 134, 135, 60, 1, 2.33601
470, 5, triangle, attraction, a-b-da, 5, 3, 2, 13, 190, 117, 195, 120, 120, 195, 3, 2.79491
470, 5, triangle, filler, NA, 999, 999, 2, 14, 141, 180, 116, 109, 143, 168, 1, 3.42546
470, 5, triangle, filler, NA, 999, 999, 2, 15, 58, 168, 153, 91, 109, 100, 2, 2.68345
470, 5, triangle, attraction, a-b-da, 5, 1, 2, 16, 135, 60, 60, 135, 132, 58, 2, 5.33715
470, 5, triangle, filler, NA, 999, 999, 2, 17, 95, 69, 141, 159, 120, 89, 2, 2.21416
470, 5, triangle, attraction, a-b-db, 9, 3, 2, 18, 120, 195, 114, 186, 195, 120, 1, 3.78434
470, 5, triangle, attraction, a-b-da, 9, 2, 2, 19, 90, 165, 165, 90, 157, 86, 2, 2.24356
470, 5, triangle, attraction, a-b-da, 14, 2, 2, 20, 90, 165, 165, 90, 153, 83, 1, 1.71579
470, 5, triangle, attraction, a-b-da, 5, 2, 2, 21, 161, 88, 165, 90, 90, 165, 3, 1.59697
470, 5, triangle, attraction, a-b-db, 2, 2, 2, 22, 89, 163, 90, 165, 165, 90, 1, 2.19644
470, 5, triangle, attraction, a-b-da, 9, 3, 2, 23, 186, 114, 195, 120, 120, 195, 3, 1.1508
470, 5, triangle, filler, NA, 999, 999, 2, 24, 167, 172, 124, 117, 102, 144, 1, 1.13344
470, 5, triangle, attraction, a-b-db, 9, 1, 2, 25, 60, 135, 57, 129, 135, 60, 1, 4.34643
470, 5, triangle, attraction, a-b-da, 2, 2, 2, 26, 163, 89, 90, 165, 165, 90, 3, 6.31738
470, 5, triangle, attraction, a-b-db, 9, 2, 2, 27, 86, 157, 90, 165, 165, 90, 2, 3.55721
470, 5, triangle, attraction, a-b-db, 5, 2, 2, 28, 90, 165, 88, 161, 165, 90, 2, 5.67282
470, 5, triangle, attraction, a-b-db, 14, 1, 2, 29, 135, 60, 56, 125, 60, 135, 1, 2.73571
470, 5, triangle, filler, NA, 999, 999, 2, 30, 74, 58, 148, 92, 106, 134, 3, 2.38253
470, 5, triangle, attraction, a-b-db, 2, 3, 2, 31, 195, 120, 119, 193, 120, 195, 1, 24.8726
470, 5, triangle, attraction, a-b-da, 2, 3, 2, 32, 195, 120, 193, 119, 120, 195, 3, 2.08287
470, 5, triangle, attraction, a-b-da, 14, 3, 2, 33, 120, 195, 181, 111, 195, 120, 1, 2.38492
470, 5, triangle, attraction, a-b-db, 14, 2, 2, 34, 165, 90, 83, 153, 90, 165, 3, 1.44676
470, 5, triangle, attraction, a-b-db, 5, 1, 3, 1, 60, 135, 135, 60, 58, 132, 1, 2.34011
470, 5, triangle, attraction, a-b-da, 2, 2, 3, 2, 165, 90, 163, 89, 90, 165, 3, 2.84193
470, 5, triangle, attraction, a-b-db, 9, 1, 3, 3, 60, 135, 57, 129, 135, 60, 2, 1.7739
470, 5, triangle, filler, NA, 999, 999, 3, 4, 120, 106, 195, 136, 148, 66, 2, 1.79162
470, 5, triangle, attraction, a-b-db, 14, 1, 3, 5, 56, 125, 60, 135, 135, 60, 3, 2.79564
470, 5, triangle, filler, NA, 999, 999, 3, 6, 184, 173, 89, 132, 62, 87, 1, 1.62958
470, 5, triangle, attraction, a-b-db, 9, 3, 3, 7, 114, 186, 120, 195, 195, 120, 2, 1.88021
470, 5, triangle, attraction, a-b-da, 2, 1, 3, 8, 134, 59, 60, 135, 135, 60, 2, 2.65669
470, 5, triangle, attraction, a-b-db, 9, 2, 3, 9, 90, 165, 165, 90, 86, 157, 1, 4.54321
470, 5, triangle, attraction, a-b-da, 14, 2, 3, 10, 153, 83, 90, 165, 165, 90, 2, 3.10101
470, 5, triangle, attraction, a-b-da, 9, 1, 3, 11, 135, 60, 60, 135, 129, 57, 2, 2.41251
470, 5, triangle, filler, NA, 999, 999, 3, 12, 73, 169, 110, 144, 67, 67, 2, 1.61579
470, 5, triangle, attraction, a-b-da, 9, 3, 3, 13, 120, 195, 195, 120, 186, 114, 1, 7.01547
470, 5, triangle, filler, NA, 999, 999, 3, 14, 137, 155, 188, 111, 108, 57, 1, 1.8016
470, 5, triangle, attraction, a-b-da, 2, 3, 3, 15, 195, 120, 193, 119, 120, 195, 3, 1.64518
470, 5, triangle, attraction, a-b-db, 5, 3, 3, 16, 117, 190, 195, 120, 120, 195, 2, 1.58657
470, 5, triangle, attraction, a-b-db, 14, 2, 3, 17, 165, 90, 90, 165, 83, 153, 1, 1.66401
470, 5, triangle, attraction, a-b-da, 5, 3, 3, 18, 195, 120, 120, 195, 190, 117, 2, 1.76221
470, 5, triangle, filler, NA, 999, 999, 3, 19, 189, 128, 155, 160, 69, 96, 2, 1.9639
470, 5, triangle, attraction, a-b-db, 5, 2, 3, 20, 88, 161, 90, 165, 165, 90, 3, 1.49444
470, 5, triangle, attraction, a-b-db, 14, 3, 3, 21, 111, 181, 195, 120, 120, 195, 3, 6.08707
470, 5, triangle, filler, NA, 999, 999, 3, 22, 147, 89, 61, 59, 83, 191, 3, 2.20025
470, 5, triangle, attraction, a-b-db, 2, 3, 3, 23, 120, 195, 195, 120, 119, 193, 2, 1.93779
470, 5, triangle, attraction, a-b-db, 2, 1, 3, 24, 135, 60, 60, 135, 59, 134, 2, 2.69691
470, 5, triangle, attraction, a-b-db, 2, 2, 3, 25, 89, 163, 90, 165, 165, 90, 3, 1.74158
470, 5, triangle, filler, NA, 999, 999, 3, 26, 68, 147, 188, 157, 171, 193, 3, 1.12405
470, 5, triangle, attraction, a-b-da, 14, 3, 3, 27, 120, 195, 181, 111, 195, 120, 1, 2.47985
470, 5, triangle, filler, NA, 999, 999, 3, 28, 146, 169, 65, 125, 134, 194, 1, 2.27196
470, 5, triangle, attraction, a-b-da, 5, 1, 3, 29, 60, 135, 132, 58, 135, 60, 1, 9.32031
470, 5, triangle, attraction, a-b-da, 9, 2, 3, 30, 165, 90, 90, 165, 157, 86, 2, 1.60443
470, 5, triangle, attraction, a-b-da, 5, 2, 3, 31, 165, 90, 90, 165, 161, 88, 2, 3.07116
470, 5, triangle, filler, NA, 999, 999, 3, 32, 167, 180, 103, 135, 79, 194, 1, 1.60036
470, 5, triangle, attraction, a-b-da, 14, 1, 3, 33, 135, 60, 60, 135, 125, 56, 2, 1.64482
470, 5, triangle, filler, NA, 999, 999, 3, 34, 59, 90, 107, 146, 61, 101, 2, 2.45127
470, 5, triangle, attraction, a-b-db, 9, 3, 4, 1, 195, 120, 114, 186, 120, 195, 2, 2.32522
470, 5, triangle, attraction, a-b-da, 5, 2, 4, 2, 161, 88, 90, 165, 165, 90, 2, 3.79464
470, 5, triangle, attraction, a-b-db, 2, 3, 4, 3, 120, 195, 195, 120, 119, 193, 2, 4.78156
470, 5, triangle, filler, NA, 999, 999, 4, 4, 115, 162, 130, 78, 89, 137, 1, 2.22768
470, 5, triangle, attraction, a-b-db, 14, 1, 4, 5, 135, 60, 56, 125, 60, 135, 3, 1.73922
470, 5, triangle, filler, NA, 999, 999, 4, 6, 178, 76, 138, 66, 152, 122, 3, 1.22521
470, 5, triangle, attraction, a-b-db, 5, 3, 4, 7, 117, 190, 120, 195, 195, 120, 1, 1.85982
470, 5, triangle, attraction, a-b-db, 14, 3, 4, 8, 195, 120, 111, 181, 120, 195, 3, 1.21248
470, 5, triangle, attraction, a-b-db, 5, 1, 4, 9, 60, 135, 135, 60, 58, 132, 1, 1.38946
470, 5, triangle, attraction, a-b-db, 14, 2, 4, 10, 165, 90, 90, 165, 83, 153, 2, 1.75335
470, 5, triangle, filler, NA, 999, 999, 4, 11, 170, 79, 176, 174, 97, 70, 2, 1.03977
470, 5, triangle, filler, NA, 999, 999, 4, 12, 94, 87, 139, 167, 88, 58, 2, 1.11111
470, 5, triangle, attraction, a-b-da, 9, 1, 4, 13, 60, 135, 135, 60, 129, 57, 1, 1.73604
470, 5, triangle, attraction, a-b-da, 9, 2, 4, 14, 165, 90, 157, 86, 90, 165, 3, 1.33001
470, 5, triangle, attraction, a-b-da, 14, 1, 4, 15, 60, 135, 125, 56, 135, 60, 1, 1.49677
470, 5, triangle, attraction, a-b-db, 2, 1, 4, 16, 60, 135, 135, 60, 59, 134, 1, 1.67967
470, 5, triangle, attraction, a-b-db, 5, 2, 4, 17, 165, 90, 90, 165, 88, 161, 2, 1.42149
470, 5, triangle, attraction, a-b-da, 5, 1, 4, 18, 60, 135, 132, 58, 135, 60, 3, 1.15339
470, 5, triangle, filler, NA, 999, 999, 4, 19, 59, 117, 104, 123, 142, 170, 3, 1.06012
470, 5, triangle, filler, NA, 999, 999, 4, 20, 153, 152, 158, 87, 87, 144, 1, 1.24
470, 5, triangle, filler, NA, 999, 999, 4, 21, 87, 151, 65, 96, 98, 188, 3, 1.09435
470, 5, triangle, attraction, a-b-db, 2, 2, 4, 22, 165, 90, 90, 165, 89, 163, 3, 2.27025
470, 5, triangle, attraction, a-b-da, 2, 3, 4, 23, 120, 195, 195, 120, 193, 119, 1, 1.04526
470, 5, triangle, attraction, a-b-db, 9, 1, 4, 24, 57, 129, 135, 60, 60, 135, 2, 1.37525
470, 5, triangle, attraction, a-b-da, 2, 1, 4, 25, 135, 60, 60, 135, 134, 59, 3, 1.57062
470, 5, triangle, filler, NA, 999, 999, 4, 26, 144, 98, 189, 154, 82, 59, 2, 1.24651
470, 5, triangle, filler, NA, 999, 999, 4, 27, 78, 106, 128, 135, 179, 132, 3, 1.19418
470, 5, triangle, attraction, a-b-da, 5, 3, 4, 28, 190, 117, 195, 120, 120, 195, 1, 1.44367
470, 5, triangle, attraction, a-b-db, 9, 2, 4, 29, 90, 165, 86, 157, 165, 90, 1, 1.36669
470, 5, triangle, attraction, a-b-da, 9, 3, 4, 30, 186, 114, 120, 195, 195, 120, 2, 1.27194
470, 5, triangle, filler, NA, 999, 999, 4, 31, 161, 95, 146, 149, 98, 99, 2, 1.91201
470, 5, triangle, attraction, a-b-da, 14, 3, 4, 32, 120, 195, 181, 111, 195, 120, 1, 1.25579
470, 5, triangle, attraction, a-b-da, 2, 2, 4, 33, 90, 165, 165, 90, 163, 89, 3, 1.99756
470, 5, triangle, attraction, a-b-da, 14, 2, 4, 34, 165, 90, 90, 165, 153, 83, 2, 43.6023
