sub_n, computer_n, disp_cond, effect, set, distance, diag, block_n, trial_n, h1, w1, h2, w2, h3, w3, choice, rt 
372, 1, triangle, practice, NA, 999, 999, 0, 1, 102, 195, 85, 82, 161, 148, 3, 2.35317
372, 1, triangle, practice, NA, 999, 999, 0, 2, 92, 100, 158, 77, 122, 64, 2, 3.37328
372, 1, triangle, practice, NA, 999, 999, 0, 3, 75, 134, 141, 67, 132, 67, 1, 2.76831
372, 1, triangle, attraction, a-b-db, 2, 2, 1, 1, 90, 165, 165, 90, 89, 163, 1, 2.70964
372, 1, triangle, attraction, a-b-db, 14, 3, 1, 2, 120, 195, 195, 120, 111, 181, 1, 4.02027
372, 1, triangle, attraction, a-b-db, 14, 2, 1, 3, 165, 90, 83, 153, 90, 165, 3, 3.2523
372, 1, triangle, attraction, a-b-da, 2, 2, 1, 4, 90, 165, 165, 90, 163, 89, 2, 7.13305
372, 1, triangle, filler, NA, 999, 999, 1, 5, 102, 58, 73, 70, 122, 95, 3, 2.45438
372, 1, triangle, attraction, a-b-da, 9, 3, 1, 6, 120, 195, 195, 120, 186, 114, 1, 3.02254
372, 1, triangle, filler, NA, 999, 999, 1, 7, 127, 96, 173, 173, 138, 95, 2, 2.03969
372, 1, triangle, filler, NA, 999, 999, 1, 8, 56, 167, 178, 78, 158, 59, 2, 2.48777
372, 1, triangle, filler, NA, 999, 999, 1, 9, 124, 193, 194, 73, 95, 193, 1, 2.0868
372, 1, triangle, attraction, a-b-da, 5, 3, 1, 10, 190, 117, 195, 120, 120, 195, 3, 6.49293
372, 1, triangle, attraction, a-b-db, 9, 3, 1, 11, 195, 120, 114, 186, 120, 195, 3, 5.98717
372, 1, triangle, attraction, a-b-db, 2, 1, 1, 12, 59, 134, 60, 135, 135, 60, 2, 4.66229
372, 1, triangle, attraction, a-b-da, 5, 1, 1, 13, 60, 135, 135, 60, 132, 58, 1, 3.07354
372, 1, triangle, attraction, a-b-db, 14, 1, 1, 14, 135, 60, 56, 125, 60, 135, 3, 6.61765
372, 1, triangle, attraction, a-b-da, 14, 1, 1, 15, 125, 56, 60, 135, 135, 60, 2, 3.34859
372, 1, triangle, filler, NA, 999, 999, 1, 16, 162, 166, 168, 103, 112, 69, 1, 2.49466
372, 1, triangle, attraction, a-b-da, 14, 3, 1, 17, 181, 111, 120, 195, 195, 120, 2, 4.04436
372, 1, triangle, filler, NA, 999, 999, 1, 18, 105, 167, 79, 104, 56, 118, 1, 2.64409
372, 1, triangle, attraction, a-b-da, 9, 2, 1, 19, 157, 86, 90, 165, 165, 90, 2, 3.11758
372, 1, triangle, filler, NA, 999, 999, 1, 20, 194, 130, 158, 160, 115, 143, 2, 2.64879
372, 1, triangle, attraction, a-b-db, 9, 2, 1, 21, 165, 90, 86, 157, 90, 165, 3, 2.85985
372, 1, triangle, attraction, a-b-da, 14, 2, 1, 22, 90, 165, 165, 90, 153, 83, 1, 2.68879
372, 1, triangle, attraction, a-b-db, 9, 1, 1, 23, 135, 60, 60, 135, 57, 129, 2, 2.96854
372, 1, triangle, attraction, a-b-da, 2, 3, 1, 24, 120, 195, 193, 119, 195, 120, 1, 2.87568
372, 1, triangle, filler, NA, 999, 999, 1, 25, 171, 150, 114, 115, 172, 159, 3, 3.16146
372, 1, triangle, filler, NA, 999, 999, 1, 26, 115, 169, 73, 114, 144, 129, 1, 3.15785
372, 1, triangle, attraction, a-b-db, 5, 3, 1, 27, 195, 120, 117, 190, 120, 195, 2, 4.79404
372, 1, triangle, attraction, a-b-db, 5, 1, 1, 28, 60, 135, 135, 60, 58, 132, 1, 3.86104
372, 1, triangle, attraction, a-b-db, 5, 2, 1, 29, 165, 90, 90, 165, 88, 161, 2, 5.70766
372, 1, triangle, attraction, a-b-da, 2, 1, 1, 30, 60, 135, 135, 60, 134, 59, 1, 4.02377
372, 1, triangle, filler, NA, 999, 999, 1, 31, 188, 76, 116, 136, 79, 74, 2, 2.91157
372, 1, triangle, attraction, a-b-db, 2, 3, 1, 32, 195, 120, 119, 193, 120, 195, 2, 12.1501
372, 1, triangle, attraction, a-b-da, 5, 2, 1, 33, 165, 90, 161, 88, 90, 165, 1, 2.99961
372, 1, triangle, attraction, a-b-da, 9, 1, 1, 34, 135, 60, 129, 57, 60, 135, 3, 3.21667
372, 1, triangle, attraction, a-b-db, 2, 2, 2, 1, 89, 163, 90, 165, 165, 90, 2, 3.52128
372, 1, triangle, filler, NA, 999, 999, 2, 2, 105, 63, 168, 107, 175, 106, 2, 3.54317
372, 1, triangle, filler, NA, 999, 999, 2, 3, 160, 133, 170, 171, 183, 129, 2, 2.77084
372, 1, triangle, filler, NA, 999, 999, 2, 4, 127, 111, 136, 166, 160, 114, 2, 2.39842
372, 1, triangle, filler, NA, 999, 999, 2, 5, 133, 164, 61, 140, 183, 138, 3, 3.00838
372, 1, triangle, attraction, a-b-db, 5, 3, 2, 6, 195, 120, 117, 190, 120, 195, 2, 3.08201
372, 1, triangle, attraction, a-b-db, 9, 3, 2, 7, 120, 195, 195, 120, 114, 186, 1, 2.70434
372, 1, triangle, attraction, a-b-db, 9, 2, 2, 8, 90, 165, 86, 157, 165, 90, 2, 3.34952
372, 1, triangle, filler, NA, 999, 999, 2, 9, 111, 186, 107, 93, 156, 69, 1, 3.17733
372, 1, triangle, attraction, a-b-db, 5, 1, 2, 10, 58, 132, 135, 60, 60, 135, 3, 3.21116
372, 1, triangle, attraction, a-b-da, 2, 3, 2, 11, 120, 195, 193, 119, 195, 120, 1, 3.03007
372, 1, triangle, attraction, a-b-da, 14, 1, 2, 12, 60, 135, 125, 56, 135, 60, 1, 2.5108
372, 1, triangle, attraction, a-b-da, 2, 2, 2, 13, 163, 89, 90, 165, 165, 90, 2, 2.58972
372, 1, triangle, attraction, a-b-da, 5, 2, 2, 14, 161, 88, 90, 165, 165, 90, 2, 2.97489
372, 1, triangle, filler, NA, 999, 999, 2, 15, 191, 101, 76, 107, 139, 104, 1, 4.12018
372, 1, triangle, attraction, a-b-da, 5, 1, 2, 16, 132, 58, 60, 135, 135, 60, 2, 8.97549
372, 1, triangle, filler, NA, 999, 999, 2, 17, 60, 124, 182, 154, 99, 165, 2, 1.52795
372, 1, triangle, attraction, a-b-da, 14, 3, 2, 18, 181, 111, 195, 120, 120, 195, 3, 3.2376
372, 1, triangle, attraction, a-b-db, 9, 1, 2, 19, 135, 60, 60, 135, 57, 129, 2, 2.66833
372, 1, triangle, attraction, a-b-da, 9, 1, 2, 20, 129, 57, 60, 135, 135, 60, 2, 5.13923
372, 1, triangle, attraction, a-b-db, 14, 1, 2, 21, 60, 135, 56, 125, 135, 60, 1, 2.12801
372, 1, triangle, filler, NA, 999, 999, 2, 22, 176, 122, 121, 118, 73, 191, 1, 1.69252
372, 1, triangle, filler, NA, 999, 999, 2, 23, 148, 85, 77, 149, 161, 130, 3, 1.81256
372, 1, triangle, attraction, a-b-da, 2, 1, 2, 24, 135, 60, 134, 59, 60, 135, 3, 2.42205
372, 1, triangle, attraction, a-b-da, 5, 3, 2, 25, 190, 117, 120, 195, 195, 120, 2, 1.97626
372, 1, triangle, attraction, a-b-db, 14, 3, 2, 26, 111, 181, 195, 120, 120, 195, 3, 7.96929
372, 1, triangle, attraction, a-b-da, 9, 2, 2, 27, 90, 165, 157, 86, 165, 90, 1, 3.11628
372, 1, triangle, attraction, a-b-da, 14, 2, 2, 28, 90, 165, 165, 90, 153, 83, 1, 2.2236
372, 1, triangle, attraction, a-b-db, 14, 2, 2, 29, 165, 90, 83, 153, 90, 165, 3, 3.10716
372, 1, triangle, attraction, a-b-db, 2, 1, 2, 30, 59, 134, 135, 60, 60, 135, 3, 3.21628
372, 1, triangle, attraction, a-b-db, 5, 2, 2, 31, 90, 165, 165, 90, 88, 161, 1, 1.99349
372, 1, triangle, filler, NA, 999, 999, 2, 32, 92, 101, 134, 189, 94, 123, 2, 1.63577
372, 1, triangle, attraction, a-b-da, 9, 3, 2, 33, 120, 195, 186, 114, 195, 120, 1, 1.78999
372, 1, triangle, attraction, a-b-db, 2, 3, 2, 34, 195, 120, 120, 195, 119, 193, 2, 1.81563
372, 1, triangle, attraction, a-b-db, 14, 3, 3, 1, 195, 120, 120, 195, 111, 181, 2, 2.07361
372, 1, triangle, attraction, a-b-da, 5, 1, 3, 2, 60, 135, 132, 58, 135, 60, 1, 2.047
372, 1, triangle, attraction, a-b-da, 14, 2, 3, 3, 153, 83, 90, 165, 165, 90, 2, 1.611
372, 1, triangle, attraction, a-b-da, 14, 1, 3, 4, 135, 60, 60, 135, 125, 56, 1, 2.05146
372, 1, triangle, filler, NA, 999, 999, 3, 5, 82, 154, 107, 121, 123, 87, 2, 2.66792
372, 1, triangle, attraction, a-b-da, 2, 3, 3, 6, 120, 195, 195, 120, 193, 119, 2, 2.75527
372, 1, triangle, attraction, a-b-db, 2, 3, 3, 7, 119, 193, 195, 120, 120, 195, 1, 3.58239
372, 1, triangle, attraction, a-b-db, 5, 1, 3, 8, 58, 132, 135, 60, 60, 135, 1, 3.42281
372, 1, triangle, filler, NA, 999, 999, 3, 9, 105, 184, 101, 190, 193, 131, 3, 3.27411
372, 1, triangle, attraction, a-b-db, 9, 2, 3, 10, 165, 90, 90, 165, 86, 157, 2, 2.57028
372, 1, triangle, attraction, a-b-db, 14, 1, 3, 11, 60, 135, 135, 60, 56, 125, 1, 1.82867
372, 1, triangle, filler, NA, 999, 999, 3, 12, 68, 60, 93, 176, 62, 186, 2, 1.73289
372, 1, triangle, attraction, a-b-db, 5, 2, 3, 13, 88, 161, 90, 165, 165, 90, 2, 2.96108
372, 1, triangle, filler, NA, 999, 999, 3, 14, 192, 184, 178, 84, 105, 113, 1, 1.59662
372, 1, triangle, attraction, a-b-db, 14, 2, 3, 15, 83, 153, 165, 90, 90, 165, 3, 2.96042
372, 1, triangle, filler, NA, 999, 999, 3, 16, 192, 99, 97, 135, 80, 101, 1, 2.22774
372, 1, triangle, attraction, a-b-db, 5, 3, 3, 17, 120, 195, 117, 190, 195, 120, 2, 2.79703
372, 1, triangle, attraction, a-b-da, 2, 2, 3, 18, 90, 165, 163, 89, 165, 90, 1, 3.00929
372, 1, triangle, attraction, a-b-da, 2, 1, 3, 19, 60, 135, 134, 59, 135, 60, 1, 2.58447
372, 1, triangle, attraction, a-b-da, 14, 3, 3, 20, 181, 111, 120, 195, 195, 120, 2, 2.27656
372, 1, triangle, filler, NA, 999, 999, 3, 21, 91, 131, 101, 142, 166, 171, 3, 1.61046
372, 1, triangle, filler, NA, 999, 999, 3, 22, 74, 152, 158, 59, 126, 95, 3, 1.7004
372, 1, triangle, attraction, a-b-da, 9, 3, 3, 23, 195, 120, 120, 195, 186, 114, 2, 1.96237
372, 1, triangle, filler, NA, 999, 999, 3, 24, 177, 99, 191, 93, 87, 102, 2, 1.95916
372, 1, triangle, attraction, a-b-da, 5, 3, 3, 25, 120, 195, 195, 120, 190, 117, 1, 2.0277
372, 1, triangle, attraction, a-b-db, 9, 1, 3, 26, 60, 135, 57, 129, 135, 60, 2, 2.78122
372, 1, triangle, attraction, a-b-da, 9, 1, 3, 27, 60, 135, 135, 60, 129, 57, 3, 3.44809
372, 1, triangle, attraction, a-b-da, 5, 2, 3, 28, 161, 88, 90, 165, 165, 90, 2, 3.48802
372, 1, triangle, attraction, a-b-db, 9, 3, 3, 29, 114, 186, 195, 120, 120, 195, 3, 3.9181
372, 1, triangle, attraction, a-b-da, 9, 2, 3, 30, 157, 86, 165, 90, 90, 165, 3, 2.25755
372, 1, triangle, filler, NA, 999, 999, 3, 31, 145, 91, 147, 56, 173, 58, 1, 1.73852
372, 1, triangle, attraction, a-b-db, 2, 2, 3, 32, 89, 163, 165, 90, 90, 165, 1, 2.81629
372, 1, triangle, attraction, a-b-db, 2, 1, 3, 33, 135, 60, 60, 135, 59, 134, 2, 2.38382
372, 1, triangle, filler, NA, 999, 999, 3, 34, 167, 101, 91, 169, 112, 172, 3, 2.37153
372, 1, triangle, filler, NA, 999, 999, 4, 1, 171, 128, 178, 178, 119, 189, 2, 1.46212
372, 1, triangle, attraction, a-b-db, 5, 3, 4, 2, 195, 120, 120, 195, 117, 190, 2, 2.87001
372, 1, triangle, attraction, a-b-db, 2, 3, 4, 3, 195, 120, 120, 195, 119, 193, 2, 1.9336
372, 1, triangle, attraction, a-b-da, 5, 1, 4, 4, 60, 135, 135, 60, 132, 58, 1, 2.50462
372, 1, triangle, attraction, a-b-db, 2, 1, 4, 5, 59, 134, 135, 60, 60, 135, 1, 2.13432
372, 1, triangle, attraction, a-b-db, 9, 3, 4, 6, 120, 195, 195, 120, 114, 186, 1, 2.08493
372, 1, triangle, attraction, a-b-da, 2, 3, 4, 7, 120, 195, 193, 119, 195, 120, 1, 2.74099
372, 1, triangle, attraction, a-b-db, 14, 2, 4, 8, 165, 90, 83, 153, 90, 165, 3, 3.50468
372, 1, triangle, attraction, a-b-da, 9, 3, 4, 9, 195, 120, 120, 195, 186, 114, 2, 2.08369
372, 1, triangle, filler, NA, 999, 999, 4, 10, 83, 160, 146, 71, 193, 113, 3, 1.54699
372, 1, triangle, attraction, a-b-da, 14, 2, 4, 11, 153, 83, 90, 165, 165, 90, 2, 1.87076
372, 1, triangle, attraction, a-b-db, 5, 2, 4, 12, 88, 161, 165, 90, 90, 165, 1, 4.68065
372, 1, triangle, attraction, a-b-db, 14, 1, 4, 13, 56, 125, 60, 135, 135, 60, 2, 2.23845
372, 1, triangle, filler, NA, 999, 999, 4, 14, 127, 135, 174, 87, 69, 106, 1, 1.70401
372, 1, triangle, filler, NA, 999, 999, 4, 15, 88, 170, 171, 100, 57, 173, 1, 4.58201
372, 1, triangle, attraction, a-b-da, 5, 2, 4, 16, 161, 88, 165, 90, 90, 165, 3, 2.80833
372, 1, triangle, attraction, a-b-db, 9, 2, 4, 17, 90, 165, 86, 157, 165, 90, 1, 2.44358
372, 1, triangle, filler, NA, 999, 999, 4, 18, 102, 90, 165, 80, 173, 154, 3, 2.24083
372, 1, triangle, attraction, a-b-db, 14, 3, 4, 19, 111, 181, 120, 195, 195, 120, 2, 2.6739
372, 1, triangle, filler, NA, 999, 999, 4, 20, 172, 91, 176, 170, 163, 192, 2, 2.37683
372, 1, triangle, attraction, a-b-da, 14, 3, 4, 21, 195, 120, 181, 111, 120, 195, 1, 1.72706
372, 1, triangle, attraction, a-b-da, 14, 1, 4, 22, 135, 60, 60, 135, 125, 56, 1, 2.62636
372, 1, triangle, filler, NA, 999, 999, 4, 23, 126, 142, 74, 188, 122, 192, 3, 3.11531
372, 1, triangle, attraction, a-b-da, 9, 2, 4, 24, 157, 86, 90, 165, 165, 90, 2, 1.84097
372, 1, triangle, attraction, a-b-db, 9, 1, 4, 25, 60, 135, 135, 60, 57, 129, 1, 2.06567
372, 1, triangle, filler, NA, 999, 999, 4, 26, 73, 128, 151, 168, 156, 133, 2, 1.75974
372, 1, triangle, attraction, a-b-db, 5, 1, 4, 27, 135, 60, 60, 135, 58, 132, 2, 2.72415
372, 1, triangle, filler, NA, 999, 999, 4, 28, 191, 68, 152, 99, 156, 84, 2, 2.09088
372, 1, triangle, attraction, a-b-da, 9, 1, 4, 29, 60, 135, 129, 57, 135, 60, 1, 3.47406
372, 1, triangle, attraction, a-b-db, 2, 2, 4, 30, 165, 90, 89, 163, 90, 165, 2, 1.70336
372, 1, triangle, attraction, a-b-da, 2, 2, 4, 31, 165, 90, 90, 165, 163, 89, 2, 2.35111
372, 1, triangle, attraction, a-b-da, 5, 3, 4, 32, 190, 117, 195, 120, 120, 195, 3, 2.00818
372, 1, triangle, attraction, a-b-da, 2, 1, 4, 33, 134, 59, 60, 135, 135, 60, 2, 2.94796
372, 1, triangle, filler, NA, 999, 999, 4, 34, 139, 126, 97, 154, 60, 133, 1, 1.51787
