sub_n, computer_n, disp_cond, effect, set, distance, diag, block_n, trial_n, h1, w1, h2, w2, h3, w3, choice, rt 
162, 6, triangle, practice, NA, 999, 999, 0, 1, 177, 192, 93, 124, 183, 107, 1, 2.70397
162, 6, triangle, practice, NA, 999, 999, 0, 2, 89, 92, 181, 166, 182, 78, 2, 1.73505
162, 6, triangle, practice, NA, 999, 999, 0, 3, 169, 122, 113, 115, 86, 144, 1, 1.65975
162, 6, triangle, attraction, a-b-db, 9, 1, 1, 1, 135, 60, 57, 129, 60, 135, 2, 2.27126
162, 6, triangle, filler, NA, 999, 999, 1, 2, 154, 177, 184, 153, 80, 183, 1, 1.99964
162, 6, triangle, attraction, a-b-da, 9, 3, 1, 3, 195, 120, 120, 195, 186, 114, 2, 1.67408
162, 6, triangle, attraction, a-b-da, 9, 1, 1, 4, 135, 60, 129, 57, 60, 135, 3, 1.72849
162, 6, triangle, attraction, a-b-db, 2, 1, 1, 5, 135, 60, 60, 135, 59, 134, 3, 2.11703
162, 6, triangle, attraction, a-b-db, 9, 2, 1, 6, 165, 90, 86, 157, 90, 165, 3, 2.12994
162, 6, triangle, attraction, a-b-db, 5, 3, 1, 7, 195, 120, 120, 195, 117, 190, 3, 2.41857
162, 6, triangle, filler, NA, 999, 999, 1, 8, 67, 126, 126, 107, 60, 162, 2, 1.49106
162, 6, triangle, attraction, a-b-da, 14, 1, 1, 9, 60, 135, 125, 56, 135, 60, 3, 2.74428
162, 6, triangle, attraction, a-b-db, 2, 3, 1, 10, 119, 193, 120, 195, 195, 120, 1, 2.59646
162, 6, triangle, attraction, a-b-da, 5, 3, 1, 11, 190, 117, 120, 195, 195, 120, 3, 1.6319
162, 6, triangle, attraction, a-b-da, 9, 2, 1, 12, 165, 90, 157, 86, 90, 165, 3, 3.92906
162, 6, triangle, attraction, a-b-db, 5, 2, 1, 13, 90, 165, 88, 161, 165, 90, 1, 1.80432
162, 6, triangle, filler, NA, 999, 999, 1, 14, 113, 185, 149, 140, 81, 102, 2, 1.87889
162, 6, triangle, attraction, a-b-da, 5, 2, 1, 15, 90, 165, 165, 90, 161, 88, 1, 2.10994
162, 6, triangle, filler, NA, 999, 999, 1, 16, 70, 154, 90, 57, 84, 80, 1, 1.79591
162, 6, triangle, filler, NA, 999, 999, 1, 17, 129, 136, 168, 92, 188, 129, 3, 1.27995
162, 6, triangle, filler, NA, 999, 999, 1, 18, 187, 139, 136, 179, 149, 154, 1, 1.94274
162, 6, triangle, attraction, a-b-da, 2, 1, 1, 19, 135, 60, 134, 59, 60, 135, 3, 1.61899
162, 6, triangle, filler, NA, 999, 999, 1, 20, 90, 71, 132, 135, 59, 107, 2, 1.28524
162, 6, triangle, attraction, a-b-db, 14, 2, 1, 21, 165, 90, 83, 153, 90, 165, 3, 2.49934
162, 6, triangle, attraction, a-b-da, 2, 3, 1, 22, 120, 195, 193, 119, 195, 120, 1, 1.68993
162, 6, triangle, attraction, a-b-db, 5, 1, 1, 23, 58, 132, 60, 135, 135, 60, 2, 1.70513
162, 6, triangle, filler, NA, 999, 999, 1, 24, 74, 96, 78, 174, 91, 176, 3, 1.30465
162, 6, triangle, attraction, a-b-db, 14, 1, 1, 25, 60, 135, 135, 60, 56, 125, 1, 1.37273
162, 6, triangle, attraction, a-b-da, 2, 2, 1, 26, 165, 90, 163, 89, 90, 165, 3, 1.15321
162, 6, triangle, attraction, a-b-da, 14, 2, 1, 27, 90, 165, 153, 83, 165, 90, 1, 1.79528
162, 6, triangle, attraction, a-b-db, 2, 2, 1, 28, 89, 163, 165, 90, 90, 165, 3, 1.47166
162, 6, triangle, filler, NA, 999, 999, 1, 29, 58, 180, 124, 122, 173, 109, 3, 1.35132
162, 6, triangle, attraction, a-b-da, 5, 1, 1, 30, 60, 135, 135, 60, 132, 58, 1, 1.6443
162, 6, triangle, attraction, a-b-db, 9, 3, 1, 31, 195, 120, 120, 195, 114, 186, 3, 1.72412
162, 6, triangle, attraction, a-b-db, 14, 3, 1, 32, 195, 120, 111, 181, 120, 195, 3, 1.28103
162, 6, triangle, attraction, a-b-da, 14, 3, 1, 33, 181, 111, 195, 120, 120, 195, 3, 1.12795
162, 6, triangle, filler, NA, 999, 999, 1, 34, 195, 71, 83, 164, 67, 106, 2, 1.43829
162, 6, triangle, attraction, a-b-da, 5, 2, 2, 1, 90, 165, 165, 90, 161, 88, 1, 1.1418
162, 6, triangle, filler, NA, 999, 999, 2, 2, 127, 113, 136, 104, 83, 178, 3, 1.10801
162, 6, triangle, filler, NA, 999, 999, 2, 3, 153, 91, 172, 172, 125, 119, 2, 1.33037
162, 6, triangle, attraction, a-b-db, 9, 2, 2, 4, 90, 165, 165, 90, 86, 157, 1, 1.19099
162, 6, triangle, filler, NA, 999, 999, 2, 5, 116, 81, 149, 167, 141, 63, 2, 1.19418
162, 6, triangle, attraction, a-b-db, 2, 3, 2, 6, 119, 193, 120, 195, 195, 120, 1, 1.41348
162, 6, triangle, attraction, a-b-da, 14, 1, 2, 7, 125, 56, 60, 135, 135, 60, 2, 1.21418
162, 6, triangle, filler, NA, 999, 999, 2, 8, 123, 175, 78, 157, 167, 166, 3, 1.16292
162, 6, triangle, attraction, a-b-db, 9, 3, 2, 9, 114, 186, 195, 120, 120, 195, 3, 1.77532
162, 6, triangle, attraction, a-b-da, 9, 2, 2, 10, 157, 86, 90, 165, 165, 90, 2, 1.21598
162, 6, triangle, attraction, a-b-db, 14, 1, 2, 11, 56, 125, 135, 60, 60, 135, 3, 3.09009
162, 6, triangle, filler, NA, 999, 999, 2, 12, 118, 113, 65, 126, 188, 108, 3, 1.29884
162, 6, triangle, attraction, a-b-da, 14, 3, 2, 13, 181, 111, 120, 195, 195, 120, 2, 1.19788
162, 6, triangle, attraction, a-b-da, 5, 1, 2, 14, 60, 135, 132, 58, 135, 60, 1, 1.5546
162, 6, triangle, attraction, a-b-da, 9, 3, 2, 15, 120, 195, 195, 120, 186, 114, 1, 1.26919
162, 6, triangle, attraction, a-b-da, 14, 2, 2, 16, 153, 83, 165, 90, 90, 165, 3, 1.34011
162, 6, triangle, attraction, a-b-db, 5, 1, 2, 17, 58, 132, 60, 135, 135, 60, 2, 1.44792
162, 6, triangle, attraction, a-b-db, 9, 1, 2, 18, 60, 135, 57, 129, 135, 60, 1, 1.26546
162, 6, triangle, attraction, a-b-da, 2, 2, 2, 19, 90, 165, 163, 89, 165, 90, 1, 1.26622
162, 6, triangle, filler, NA, 999, 999, 2, 20, 144, 90, 142, 79, 149, 155, 3, 1.09739
162, 6, triangle, attraction, a-b-db, 2, 2, 2, 21, 89, 163, 90, 165, 165, 90, 1, 1.30372
162, 6, triangle, attraction, a-b-db, 14, 3, 2, 22, 195, 120, 111, 181, 120, 195, 3, 1.13265
162, 6, triangle, attraction, a-b-da, 2, 3, 2, 23, 193, 119, 195, 120, 120, 195, 3, 1.48919
162, 6, triangle, attraction, a-b-db, 5, 2, 2, 24, 165, 90, 88, 161, 90, 165, 2, 1.3525
162, 6, triangle, filler, NA, 999, 999, 2, 25, 173, 91, 174, 169, 127, 124, 2, 2.90968
162, 6, triangle, filler, NA, 999, 999, 2, 26, 127, 85, 103, 166, 59, 190, 2, 1.39478
162, 6, triangle, filler, NA, 999, 999, 2, 27, 87, 170, 151, 144, 164, 102, 2, 1.31822
162, 6, triangle, filler, NA, 999, 999, 2, 28, 82, 116, 119, 183, 126, 126, 2, 1.56285
162, 6, triangle, attraction, a-b-db, 14, 2, 2, 29, 90, 165, 165, 90, 83, 153, 1, 1.23987
162, 6, triangle, attraction, a-b-db, 5, 3, 2, 30, 117, 190, 120, 195, 195, 120, 1, 2.63979
162, 6, triangle, attraction, a-b-da, 2, 1, 2, 31, 134, 59, 135, 60, 60, 135, 3, 1.5213
162, 6, triangle, attraction, a-b-da, 5, 3, 2, 32, 120, 195, 195, 120, 190, 117, 1, 1.33371
162, 6, triangle, attraction, a-b-db, 2, 1, 2, 33, 60, 135, 135, 60, 59, 134, 3, 1.69977
162, 6, triangle, attraction, a-b-da, 9, 1, 2, 34, 129, 57, 60, 135, 135, 60, 2, 1.35459
162, 6, triangle, filler, NA, 999, 999, 3, 1, 130, 111, 104, 180, 120, 131, 2, 1.30203
162, 6, triangle, attraction, a-b-db, 14, 2, 3, 2, 90, 165, 83, 153, 165, 90, 1, 1.45964
162, 6, triangle, filler, NA, 999, 999, 3, 3, 83, 186, 164, 122, 167, 181, 3, 1.20402
162, 6, triangle, attraction, a-b-da, 5, 2, 3, 4, 90, 165, 161, 88, 165, 90, 1, 1.18332
162, 6, triangle, attraction, a-b-da, 2, 1, 3, 5, 60, 135, 135, 60, 134, 59, 1, 2.12775
162, 6, triangle, attraction, a-b-db, 9, 3, 3, 6, 114, 186, 195, 120, 120, 195, 3, 1.29568
162, 6, triangle, attraction, a-b-db, 9, 1, 3, 7, 135, 60, 57, 129, 60, 135, 3, 1.6447
162, 6, triangle, filler, NA, 999, 999, 3, 8, 175, 153, 84, 190, 190, 186, 3, 1.24525
162, 6, triangle, attraction, a-b-da, 2, 3, 3, 9, 193, 119, 195, 120, 120, 195, 3, 1.48575
162, 6, triangle, attraction, a-b-da, 14, 3, 3, 10, 181, 111, 195, 120, 120, 195, 3, 3.35019
162, 6, triangle, filler, NA, 999, 999, 3, 11, 121, 139, 130, 94, 93, 107, 1, 1.22527
162, 6, triangle, attraction, a-b-da, 5, 3, 3, 12, 195, 120, 120, 195, 190, 117, 2, 1.19359
162, 6, triangle, attraction, a-b-db, 2, 3, 3, 13, 195, 120, 119, 193, 120, 195, 3, 1.97445
162, 6, triangle, attraction, a-b-db, 9, 2, 3, 14, 165, 90, 86, 157, 90, 165, 3, 1.21716
162, 6, triangle, attraction, a-b-db, 2, 1, 3, 15, 60, 135, 135, 60, 59, 134, 3, 1.8189
162, 6, triangle, filler, NA, 999, 999, 3, 16, 60, 152, 125, 89, 108, 193, 3, 1.27638
162, 6, triangle, attraction, a-b-da, 14, 1, 3, 17, 125, 56, 135, 60, 60, 135, 3, 1.7012
162, 6, triangle, attraction, a-b-da, 9, 2, 3, 18, 90, 165, 157, 86, 165, 90, 1, 1.33844
162, 6, triangle, filler, NA, 999, 999, 3, 19, 169, 105, 73, 65, 60, 66, 1, 1.23007
162, 6, triangle, filler, NA, 999, 999, 3, 20, 184, 153, 139, 171, 128, 81, 1, 3.3686
162, 6, triangle, attraction, a-b-db, 5, 3, 3, 21, 195, 120, 117, 190, 120, 195, 3, 1.30059
162, 6, triangle, attraction, a-b-db, 5, 1, 3, 22, 135, 60, 60, 135, 58, 132, 3, 1.24868
162, 6, triangle, filler, NA, 999, 999, 3, 23, 76, 179, 85, 192, 141, 69, 1, 1.11384
162, 6, triangle, attraction, a-b-db, 5, 2, 3, 24, 165, 90, 88, 161, 90, 165, 3, 1.13661
162, 6, triangle, attraction, a-b-da, 9, 3, 3, 25, 195, 120, 120, 195, 186, 114, 2, 1.29282
162, 6, triangle, attraction, a-b-da, 5, 1, 3, 26, 135, 60, 60, 135, 132, 58, 2, 1.14736
162, 6, triangle, filler, NA, 999, 999, 3, 27, 139, 132, 102, 80, 134, 151, 3, 0.82421
162, 6, triangle, attraction, a-b-da, 9, 1, 3, 28, 60, 135, 135, 60, 129, 57, 1, 1.2964
162, 6, triangle, attraction, a-b-db, 2, 2, 3, 29, 165, 90, 89, 163, 90, 165, 3, 1.23131
162, 6, triangle, attraction, a-b-db, 14, 1, 3, 30, 56, 125, 135, 60, 60, 135, 3, 1.25606
162, 6, triangle, attraction, a-b-da, 2, 2, 3, 31, 165, 90, 163, 89, 90, 165, 1, 1.64805
162, 6, triangle, filler, NA, 999, 999, 3, 32, 120, 73, 165, 110, 73, 57, 2, 1.65742
162, 6, triangle, attraction, a-b-db, 14, 3, 3, 33, 111, 181, 195, 120, 120, 195, 3, 3.18443
162, 6, triangle, attraction, a-b-da, 14, 2, 3, 34, 165, 90, 153, 83, 90, 165, 3, 1.46228
162, 6, triangle, attraction, a-b-da, 5, 2, 4, 1, 90, 165, 161, 88, 165, 90, 1, 1.45977
162, 6, triangle, attraction, a-b-da, 9, 2, 4, 2, 157, 86, 165, 90, 90, 165, 3, 1.28384
162, 6, triangle, attraction, a-b-da, 5, 3, 4, 3, 120, 195, 195, 120, 190, 117, 1, 1.28398
162, 6, triangle, filler, NA, 999, 999, 4, 4, 194, 81, 126, 131, 64, 146, 2, 1.19408
162, 6, triangle, attraction, a-b-db, 2, 1, 4, 5, 135, 60, 60, 135, 59, 134, 2, 1.3881
162, 6, triangle, filler, NA, 999, 999, 4, 6, 118, 83, 78, 68, 96, 96, 3, 3.40694
162, 6, triangle, filler, NA, 999, 999, 4, 7, 119, 63, 145, 123, 118, 168, 3, 1.18692
162, 6, triangle, attraction, a-b-db, 14, 2, 4, 8, 90, 165, 83, 153, 165, 90, 1, 1.41313
162, 6, triangle, attraction, a-b-da, 2, 2, 4, 9, 163, 89, 165, 90, 90, 165, 3, 1.2462
162, 6, triangle, attraction, a-b-db, 2, 3, 4, 10, 195, 120, 120, 195, 119, 193, 3, 1.80712
162, 6, triangle, attraction, a-b-db, 9, 1, 4, 11, 57, 129, 60, 135, 135, 60, 1, 1.35331
162, 6, triangle, attraction, a-b-da, 14, 2, 4, 12, 90, 165, 153, 83, 165, 90, 1, 1.89389
162, 6, triangle, attraction, a-b-db, 5, 1, 4, 13, 58, 132, 135, 60, 60, 135, 3, 4.32545
162, 6, triangle, filler, NA, 999, 999, 4, 14, 156, 173, 103, 161, 76, 79, 1, 1.19279
162, 6, triangle, attraction, a-b-da, 5, 1, 4, 15, 135, 60, 60, 135, 132, 58, 2, 2.88569
162, 6, triangle, filler, NA, 999, 999, 4, 16, 120, 171, 106, 75, 109, 114, 1, 1.16205
162, 6, triangle, attraction, a-b-db, 2, 2, 4, 17, 165, 90, 90, 165, 89, 163, 3, 1.16562
162, 6, triangle, attraction, a-b-db, 9, 3, 4, 18, 195, 120, 114, 186, 120, 195, 3, 1.49918
162, 6, triangle, attraction, a-b-db, 9, 2, 4, 19, 165, 90, 90, 165, 86, 157, 3, 1.64861
162, 6, triangle, attraction, a-b-db, 5, 2, 4, 20, 165, 90, 90, 165, 88, 161, 3, 1.40079
162, 6, triangle, attraction, a-b-db, 5, 3, 4, 21, 195, 120, 120, 195, 117, 190, 3, 1.55473
162, 6, triangle, attraction, a-b-db, 14, 3, 4, 22, 195, 120, 120, 195, 111, 181, 3, 1.16634
162, 6, triangle, attraction, a-b-da, 14, 1, 4, 23, 60, 135, 135, 60, 125, 56, 1, 1.18467
162, 6, triangle, attraction, a-b-da, 9, 3, 4, 24, 195, 120, 186, 114, 120, 195, 3, 1.25492
162, 6, triangle, filler, NA, 999, 999, 4, 25, 80, 190, 120, 188, 109, 140, 2, 1.38151
162, 6, triangle, filler, NA, 999, 999, 4, 26, 90, 81, 136, 155, 74, 181, 2, 1.14512
162, 6, triangle, filler, NA, 999, 999, 4, 27, 170, 186, 147, 134, 118, 90, 1, 1.11708
162, 6, triangle, attraction, a-b-da, 14, 3, 4, 28, 181, 111, 120, 195, 195, 120, 3, 1.14711
162, 6, triangle, attraction, a-b-da, 2, 1, 4, 29, 134, 59, 60, 135, 135, 60, 2, 1.61685
162, 6, triangle, attraction, a-b-da, 9, 1, 4, 30, 60, 135, 135, 60, 129, 57, 1, 1.37152
162, 6, triangle, attraction, a-b-db, 14, 1, 4, 31, 60, 135, 56, 125, 135, 60, 2, 1.70968
162, 6, triangle, attraction, a-b-da, 2, 3, 4, 32, 193, 119, 120, 195, 195, 120, 2, 1.60259
162, 6, triangle, filler, NA, 999, 999, 4, 33, 171, 115, 168, 171, 97, 122, 2, 1.64628
162, 6, triangle, filler, NA, 999, 999, 4, 34, 71, 160, 105, 136, 107, 135, 3, 1.21276
