sub_n, computer_n, disp_cond, effect, set, distance, diag, block_n, trial_n, h1, w1, h2, w2, h3, w3, choice, rt 
228, 4, triangle, practice, NA, 999, 999, 0, 1, 98, 103, 86, 92, 190, 135, 3, 2.44315
228, 4, triangle, practice, NA, 999, 999, 0, 2, 118, 172, 122, 190, 149, 90, 2, 2.82836
228, 4, triangle, practice, NA, 999, 999, 0, 3, 87, 128, 81, 184, 122, 150, 3, 2.75605
228, 4, triangle, filler, NA, 999, 999, 1, 1, 69, 138, 66, 122, 146, 69, 3, 3.45165
228, 4, triangle, filler, NA, 999, 999, 1, 2, 156, 175, 156, 168, 93, 96, 1, 3.61854
228, 4, triangle, attraction, a-b-db, 14, 3, 1, 3, 120, 195, 195, 120, 111, 181, 1, 5.05252
228, 4, triangle, attraction, a-b-da, 5, 2, 1, 4, 161, 88, 165, 90, 90, 165, 2, 7.1292
228, 4, triangle, attraction, a-b-da, 14, 3, 1, 5, 120, 195, 181, 111, 195, 120, 1, 2.3484
228, 4, triangle, attraction, a-b-da, 9, 1, 1, 6, 129, 57, 135, 60, 60, 135, 3, 5.10455
228, 4, triangle, filler, NA, 999, 999, 1, 7, 139, 155, 183, 190, 173, 81, 2, 1.7355
228, 4, triangle, attraction, a-b-da, 9, 2, 1, 8, 157, 86, 165, 90, 90, 165, 3, 2.55751
228, 4, triangle, attraction, a-b-db, 5, 3, 1, 9, 117, 190, 195, 120, 120, 195, 3, 7.27514
228, 4, triangle, attraction, a-b-db, 9, 3, 1, 10, 195, 120, 120, 195, 114, 186, 1, 3.30404
228, 4, triangle, attraction, a-b-db, 2, 1, 1, 11, 59, 134, 135, 60, 60, 135, 1, 3.72133
228, 4, triangle, filler, NA, 999, 999, 1, 12, 61, 98, 137, 154, 146, 103, 2, 1.7521
228, 4, triangle, filler, NA, 999, 999, 1, 13, 107, 113, 193, 77, 145, 143, 3, 7.05085
228, 4, triangle, attraction, a-b-db, 9, 1, 1, 14, 57, 129, 135, 60, 60, 135, 2, 4.50819
228, 4, triangle, filler, NA, 999, 999, 1, 15, 177, 60, 192, 184, 111, 109, 2, 4.24159
228, 4, triangle, attraction, a-b-da, 5, 3, 1, 16, 195, 120, 120, 195, 190, 117, 2, 3.57021
228, 4, triangle, filler, NA, 999, 999, 1, 17, 93, 101, 79, 72, 156, 98, 3, 1.65542
228, 4, triangle, filler, NA, 999, 999, 1, 18, 96, 90, 150, 115, 188, 101, 2, 5.18562
228, 4, triangle, attraction, a-b-da, 9, 3, 1, 19, 120, 195, 195, 120, 186, 114, 1, 2.6193
228, 4, triangle, attraction, a-b-da, 2, 1, 1, 20, 135, 60, 134, 59, 60, 135, 1, 2.82136
228, 4, triangle, attraction, a-b-da, 14, 1, 1, 21, 135, 60, 125, 56, 60, 135, 1, 1.47144
228, 4, triangle, attraction, a-b-da, 14, 2, 1, 22, 165, 90, 90, 165, 153, 83, 2, 1.88732
228, 4, triangle, attraction, a-b-da, 2, 3, 1, 23, 195, 120, 193, 119, 120, 195, 3, 1.54252
228, 4, triangle, attraction, a-b-db, 2, 2, 1, 24, 165, 90, 90, 165, 89, 163, 2, 3.93477
228, 4, triangle, filler, NA, 999, 999, 1, 25, 122, 98, 154, 177, 69, 159, 2, 2.34594
228, 4, triangle, attraction, a-b-db, 2, 3, 1, 26, 119, 193, 195, 120, 120, 195, 1, 2.17482
228, 4, triangle, attraction, a-b-db, 14, 2, 1, 27, 83, 153, 165, 90, 90, 165, 3, 2.64046
228, 4, triangle, attraction, a-b-db, 14, 1, 1, 28, 60, 135, 135, 60, 56, 125, 1, 2.18691
228, 4, triangle, attraction, a-b-db, 5, 1, 1, 29, 58, 132, 60, 135, 135, 60, 2, 8.59076
228, 4, triangle, attraction, a-b-da, 2, 2, 1, 30, 165, 90, 90, 165, 163, 89, 3, 2.8658
228, 4, triangle, filler, NA, 999, 999, 1, 31, 86, 137, 151, 131, 109, 69, 2, 4.74494
228, 4, triangle, attraction, a-b-da, 5, 1, 1, 32, 60, 135, 132, 58, 135, 60, 3, 3.11906
228, 4, triangle, attraction, a-b-db, 9, 2, 1, 33, 165, 90, 90, 165, 86, 157, 2, 2.4132
228, 4, triangle, attraction, a-b-db, 5, 2, 1, 34, 90, 165, 88, 161, 165, 90, 1, 3.385
228, 4, triangle, attraction, a-b-db, 5, 2, 2, 1, 88, 161, 90, 165, 165, 90, 3, 2.3716
228, 4, triangle, attraction, a-b-da, 2, 1, 2, 2, 135, 60, 134, 59, 60, 135, 3, 6.00833
228, 4, triangle, attraction, a-b-db, 2, 2, 2, 3, 90, 165, 89, 163, 165, 90, 1, 1.64913
228, 4, triangle, attraction, a-b-da, 9, 3, 2, 4, 120, 195, 186, 114, 195, 120, 1, 5.03309
228, 4, triangle, filler, NA, 999, 999, 2, 5, 126, 172, 183, 126, 135, 176, 3, 2.81936
228, 4, triangle, attraction, a-b-da, 9, 1, 2, 6, 129, 57, 60, 135, 135, 60, 2, 2.06274
228, 4, triangle, attraction, a-b-db, 5, 1, 2, 7, 60, 135, 135, 60, 58, 132, 2, 3.74981
228, 4, triangle, filler, NA, 999, 999, 2, 8, 156, 170, 107, 83, 105, 81, 1, 2.2173
228, 4, triangle, attraction, a-b-db, 9, 1, 2, 9, 135, 60, 57, 129, 60, 135, 3, 4.4067
228, 4, triangle, attraction, a-b-da, 2, 2, 2, 10, 165, 90, 90, 165, 163, 89, 2, 2.32591
228, 4, triangle, attraction, a-b-da, 5, 1, 2, 11, 60, 135, 135, 60, 132, 58, 1, 2.05968
228, 4, triangle, filler, NA, 999, 999, 2, 12, 80, 57, 65, 78, 124, 116, 3, 1.45533
228, 4, triangle, attraction, a-b-db, 14, 1, 2, 13, 56, 125, 135, 60, 60, 135, 2, 2.06316
228, 4, triangle, attraction, a-b-db, 2, 3, 2, 14, 195, 120, 119, 193, 120, 195, 3, 2.58247
228, 4, triangle, filler, NA, 999, 999, 2, 15, 162, 88, 65, 153, 140, 115, 3, 1.49657
228, 4, triangle, attraction, a-b-db, 5, 3, 2, 16, 120, 195, 117, 190, 195, 120, 1, 3.25623
228, 4, triangle, attraction, a-b-db, 2, 1, 2, 17, 59, 134, 60, 135, 135, 60, 3, 1.99296
228, 4, triangle, filler, NA, 999, 999, 2, 18, 57, 116, 176, 91, 139, 110, 2, 2.30049
228, 4, triangle, filler, NA, 999, 999, 2, 19, 128, 62, 73, 187, 120, 176, 3, 1.42847
228, 4, triangle, filler, NA, 999, 999, 2, 20, 78, 129, 96, 163, 176, 64, 2, 1.56372
228, 4, triangle, filler, NA, 999, 999, 2, 21, 159, 94, 158, 72, 140, 124, 3, 1.75436
228, 4, triangle, attraction, a-b-da, 5, 2, 2, 22, 90, 165, 165, 90, 161, 88, 1, 2.71623
228, 4, triangle, attraction, a-b-db, 9, 3, 2, 23, 120, 195, 195, 120, 114, 186, 2, 1.46777
228, 4, triangle, attraction, a-b-da, 5, 3, 2, 24, 120, 195, 195, 120, 190, 117, 1, 2.12272
228, 4, triangle, attraction, a-b-da, 9, 2, 2, 25, 157, 86, 90, 165, 165, 90, 3, 3.24238
228, 4, triangle, filler, NA, 999, 999, 2, 26, 93, 187, 124, 148, 194, 92, 2, 2.30895
228, 4, triangle, attraction, a-b-db, 14, 3, 2, 27, 120, 195, 195, 120, 111, 181, 2, 2.39218
228, 4, triangle, attraction, a-b-da, 14, 3, 2, 28, 195, 120, 120, 195, 181, 111, 1, 2.23007
228, 4, triangle, attraction, a-b-da, 14, 2, 2, 29, 90, 165, 153, 83, 165, 90, 3, 2.42951
228, 4, triangle, attraction, a-b-db, 9, 2, 2, 30, 86, 157, 90, 165, 165, 90, 3, 2.92714
228, 4, triangle, attraction, a-b-da, 2, 3, 2, 31, 193, 119, 120, 195, 195, 120, 1, 2.18304
228, 4, triangle, filler, NA, 999, 999, 2, 32, 99, 161, 102, 183, 125, 164, 3, 1.88754
228, 4, triangle, attraction, a-b-da, 14, 1, 2, 33, 60, 135, 135, 60, 125, 56, 1, 3.5128
228, 4, triangle, attraction, a-b-db, 14, 2, 2, 34, 90, 165, 165, 90, 83, 153, 1, 2.67027
228, 4, triangle, attraction, a-b-da, 14, 3, 3, 1, 195, 120, 120, 195, 181, 111, 1, 2.72504
228, 4, triangle, attraction, a-b-db, 14, 3, 3, 2, 111, 181, 195, 120, 120, 195, 3, 3.88424
228, 4, triangle, attraction, a-b-da, 2, 1, 3, 3, 60, 135, 134, 59, 135, 60, 2, 4.23609
228, 4, triangle, attraction, a-b-db, 2, 2, 3, 4, 165, 90, 89, 163, 90, 165, 1, 4.90175
228, 4, triangle, attraction, a-b-da, 5, 1, 3, 5, 60, 135, 132, 58, 135, 60, 3, 2.81935
228, 4, triangle, attraction, a-b-da, 9, 1, 3, 6, 129, 57, 135, 60, 60, 135, 3, 2.14155
228, 4, triangle, filler, NA, 999, 999, 3, 7, 85, 147, 195, 189, 75, 102, 2, 2.5712
228, 4, triangle, attraction, a-b-db, 9, 2, 3, 8, 90, 165, 165, 90, 86, 157, 1, 2.80066
228, 4, triangle, filler, NA, 999, 999, 3, 9, 94, 114, 111, 132, 97, 56, 2, 2.26729
228, 4, triangle, attraction, a-b-da, 9, 2, 3, 10, 165, 90, 157, 86, 90, 165, 3, 1.42612
228, 4, triangle, attraction, a-b-da, 5, 3, 3, 11, 190, 117, 120, 195, 195, 120, 2, 1.90912
228, 4, triangle, attraction, a-b-db, 9, 3, 3, 12, 120, 195, 195, 120, 114, 186, 1, 2.33903
228, 4, triangle, attraction, a-b-da, 2, 3, 3, 13, 120, 195, 193, 119, 195, 120, 3, 2.69733
228, 4, triangle, attraction, a-b-da, 2, 2, 3, 14, 163, 89, 165, 90, 90, 165, 3, 2.40625
228, 4, triangle, attraction, a-b-db, 5, 3, 3, 15, 117, 190, 195, 120, 120, 195, 3, 3.67384
228, 4, triangle, filler, NA, 999, 999, 3, 16, 174, 67, 160, 107, 110, 183, 3, 1.42478
228, 4, triangle, filler, NA, 999, 999, 3, 17, 90, 134, 71, 194, 158, 145, 3, 1.67467
228, 4, triangle, attraction, a-b-db, 2, 1, 3, 18, 135, 60, 59, 134, 60, 135, 2, 2.315
228, 4, triangle, filler, NA, 999, 999, 3, 19, 173, 175, 107, 108, 160, 88, 1, 1.17614
228, 4, triangle, filler, NA, 999, 999, 3, 20, 101, 140, 154, 170, 156, 161, 2, 1.60482
228, 4, triangle, attraction, a-b-db, 2, 3, 3, 21, 119, 193, 195, 120, 120, 195, 3, 3.04666
228, 4, triangle, filler, NA, 999, 999, 3, 22, 82, 176, 143, 96, 114, 58, 1, 1.9663
228, 4, triangle, attraction, a-b-db, 5, 2, 3, 23, 165, 90, 90, 165, 88, 161, 1, 3.43557
228, 4, triangle, attraction, a-b-db, 14, 2, 3, 24, 90, 165, 83, 153, 165, 90, 1, 2.78234
228, 4, triangle, attraction, a-b-da, 14, 2, 3, 25, 153, 83, 90, 165, 165, 90, 3, 1.48128
228, 4, triangle, attraction, a-b-db, 5, 1, 3, 26, 58, 132, 135, 60, 60, 135, 1, 2.53756
228, 4, triangle, attraction, a-b-db, 9, 1, 3, 27, 57, 129, 60, 135, 135, 60, 2, 4.2948
228, 4, triangle, attraction, a-b-da, 9, 3, 3, 28, 195, 120, 186, 114, 120, 195, 3, 2.37322
228, 4, triangle, filler, NA, 999, 999, 3, 29, 140, 142, 65, 175, 159, 84, 1, 2.14474
228, 4, triangle, filler, NA, 999, 999, 3, 30, 192, 186, 56, 167, 108, 131, 1, 1.60639
228, 4, triangle, attraction, a-b-db, 14, 1, 3, 31, 60, 135, 56, 125, 135, 60, 3, 4.61808
228, 4, triangle, filler, NA, 999, 999, 3, 32, 100, 60, 158, 179, 188, 123, 2, 1.29981
228, 4, triangle, attraction, a-b-da, 14, 1, 3, 33, 60, 135, 135, 60, 125, 56, 1, 2.69033
228, 4, triangle, attraction, a-b-da, 5, 2, 3, 34, 165, 90, 161, 88, 90, 165, 3, 2.59972
228, 4, triangle, attraction, a-b-da, 5, 2, 4, 1, 161, 88, 165, 90, 90, 165, 3, 2.64369
228, 4, triangle, attraction, a-b-db, 9, 1, 4, 2, 135, 60, 57, 129, 60, 135, 1, 1.89311
228, 4, triangle, attraction, a-b-da, 14, 2, 4, 3, 165, 90, 90, 165, 153, 83, 1, 3.07693
228, 4, triangle, attraction, a-b-da, 2, 1, 4, 4, 135, 60, 60, 135, 134, 59, 3, 1.5722
228, 4, triangle, attraction, a-b-da, 9, 3, 4, 5, 195, 120, 186, 114, 120, 195, 1, 2.91921
228, 4, triangle, attraction, a-b-db, 14, 3, 4, 6, 111, 181, 195, 120, 120, 195, 2, 1.4776
228, 4, triangle, attraction, a-b-da, 9, 2, 4, 7, 165, 90, 157, 86, 90, 165, 3, 5.03826
228, 4, triangle, filler, NA, 999, 999, 4, 8, 151, 174, 59, 125, 95, 82, 1, 1.32726
228, 4, triangle, filler, NA, 999, 999, 4, 9, 68, 135, 144, 153, 69, 133, 2, 1.70105
228, 4, triangle, attraction, a-b-db, 2, 1, 4, 10, 59, 134, 135, 60, 60, 135, 3, 2.37233
228, 4, triangle, attraction, a-b-db, 14, 1, 4, 11, 135, 60, 60, 135, 56, 125, 1, 1.91312
228, 4, triangle, attraction, a-b-da, 5, 3, 4, 12, 120, 195, 190, 117, 195, 120, 1, 2.74293
228, 4, triangle, attraction, a-b-db, 9, 2, 4, 13, 90, 165, 86, 157, 165, 90, 3, 1.49293
228, 4, triangle, attraction, a-b-da, 2, 3, 4, 14, 195, 120, 193, 119, 120, 195, 3, 1.24392
228, 4, triangle, attraction, a-b-da, 14, 1, 4, 15, 135, 60, 60, 135, 125, 56, 1, 1.87778
228, 4, triangle, attraction, a-b-db, 9, 3, 4, 16, 195, 120, 120, 195, 114, 186, 2, 1.4378
228, 4, triangle, filler, NA, 999, 999, 4, 17, 93, 133, 169, 139, 158, 80, 2, 1.37346
228, 4, triangle, attraction, a-b-db, 2, 2, 4, 18, 165, 90, 90, 165, 89, 163, 1, 2.11494
228, 4, triangle, filler, NA, 999, 999, 4, 19, 178, 130, 146, 181, 146, 110, 2, 1.25426
228, 4, triangle, attraction, a-b-da, 2, 2, 4, 20, 165, 90, 163, 89, 90, 165, 3, 1.69616
228, 4, triangle, filler, NA, 999, 999, 4, 21, 94, 112, 114, 97, 129, 115, 3, 1.78401
228, 4, triangle, attraction, a-b-da, 5, 1, 4, 22, 60, 135, 135, 60, 132, 58, 1, 1.54634
228, 4, triangle, filler, NA, 999, 999, 4, 23, 154, 169, 113, 141, 132, 113, 1, 3.678
228, 4, triangle, attraction, a-b-db, 5, 1, 4, 24, 60, 135, 58, 132, 135, 60, 2, 3.13397
228, 4, triangle, attraction, a-b-db, 5, 3, 4, 25, 120, 195, 195, 120, 117, 190, 2, 3.74828
228, 4, triangle, attraction, a-b-db, 14, 2, 4, 26, 165, 90, 83, 153, 90, 165, 3, 2.15989
228, 4, triangle, filler, NA, 999, 999, 4, 27, 148, 87, 126, 156, 176, 150, 3, 1.42187
228, 4, triangle, filler, NA, 999, 999, 4, 28, 183, 70, 180, 79, 157, 186, 3, 1.11294
228, 4, triangle, attraction, a-b-da, 9, 1, 4, 29, 60, 135, 135, 60, 129, 57, 1, 1.50937
228, 4, triangle, filler, NA, 999, 999, 4, 30, 140, 156, 153, 144, 92, 189, 1, 1.38025
228, 4, triangle, attraction, a-b-da, 14, 3, 4, 31, 181, 111, 195, 120, 120, 195, 2, 1.79082
228, 4, triangle, filler, NA, 999, 999, 4, 32, 174, 195, 145, 56, 179, 113, 1, 1.75421
228, 4, triangle, attraction, a-b-db, 2, 3, 4, 33, 119, 193, 195, 120, 120, 195, 3, 1.90263
228, 4, triangle, attraction, a-b-db, 5, 2, 4, 34, 165, 90, 88, 161, 90, 165, 3, 2.72693
