sub_n, computer_n, disp_cond, effect, set, distance, diag, block_n, trial_n, h1, w1, h2, w2, h3, w3, choice, rt 
498, 6, triangle, practice, NA, 999, 999, 0, 1, 88, 121, 94, 155, 126, 119, 3, 1.94203
498, 6, triangle, practice, NA, 999, 999, 0, 2, 169, 100, 144, 167, 175, 87, 2, 2.89055
498, 6, triangle, practice, NA, 999, 999, 0, 3, 138, 178, 63, 172, 123, 150, 1, 4.73494
498, 6, triangle, attraction, a-b-db, 9, 2, 1, 1, 90, 165, 86, 157, 165, 90, 3, 2.17914
498, 6, triangle, attraction, a-b-da, 5, 2, 1, 2, 161, 88, 90, 165, 165, 90, 3, 5.37588
498, 6, triangle, attraction, a-b-da, 14, 2, 1, 3, 90, 165, 153, 83, 165, 90, 1, 1.81909
498, 6, triangle, attraction, a-b-da, 9, 3, 1, 4, 186, 114, 195, 120, 120, 195, 3, 4.46622
498, 6, triangle, filler, NA, 999, 999, 1, 5, 101, 82, 169, 94, 195, 168, 3, 6.19344
498, 6, triangle, attraction, a-b-da, 2, 2, 1, 6, 165, 90, 90, 165, 163, 89, 2, 10.1012
498, 6, triangle, filler, NA, 999, 999, 1, 7, 160, 145, 146, 160, 139, 142, 2, 8.07957
498, 6, triangle, filler, NA, 999, 999, 1, 8, 131, 181, 106, 117, 187, 76, 3, 4.37912
498, 6, triangle, attraction, a-b-da, 9, 2, 1, 9, 165, 90, 90, 165, 157, 86, 1, 9.63237
498, 6, triangle, filler, NA, 999, 999, 1, 10, 137, 143, 66, 89, 142, 128, 3, 3.63734
498, 6, triangle, filler, NA, 999, 999, 1, 11, 92, 139, 81, 167, 192, 176, 3, 14.5997
498, 6, triangle, attraction, a-b-da, 2, 1, 1, 12, 134, 59, 135, 60, 60, 135, 3, 7.21161
498, 6, triangle, attraction, a-b-db, 14, 3, 1, 13, 195, 120, 111, 181, 120, 195, 1, 9.39869
498, 6, triangle, attraction, a-b-db, 2, 1, 1, 14, 135, 60, 60, 135, 59, 134, 3, 7.16469
498, 6, triangle, attraction, a-b-db, 5, 3, 1, 15, 120, 195, 195, 120, 117, 190, 3, 1.99177
498, 6, triangle, filler, NA, 999, 999, 1, 16, 133, 96, 120, 191, 66, 190, 1, 5.25848
498, 6, triangle, filler, NA, 999, 999, 1, 17, 70, 173, 194, 172, 126, 129, 3, 13.1852
498, 6, triangle, filler, NA, 999, 999, 1, 18, 194, 124, 76, 179, 113, 83, 1, 3.78524
498, 6, triangle, attraction, a-b-db, 9, 3, 1, 19, 114, 186, 120, 195, 195, 120, 3, 9.38725
498, 6, triangle, attraction, a-b-da, 14, 1, 1, 20, 125, 56, 135, 60, 60, 135, 3, 22.7237
498, 6, triangle, attraction, a-b-da, 5, 1, 1, 21, 135, 60, 60, 135, 132, 58, 1, 2.08384
498, 6, triangle, filler, NA, 999, 999, 1, 22, 154, 135, 185, 70, 80, 111, 2, 1.69587
498, 6, triangle, attraction, a-b-db, 14, 1, 1, 23, 60, 135, 56, 125, 135, 60, 3, 4.50284
498, 6, triangle, attraction, a-b-da, 2, 3, 1, 24, 195, 120, 193, 119, 120, 195, 3, 5.18901
498, 6, triangle, filler, NA, 999, 999, 1, 25, 107, 156, 75, 167, 112, 89, 1, 6.18494
498, 6, triangle, attraction, a-b-db, 14, 2, 1, 26, 90, 165, 83, 153, 165, 90, 3, 14.2494
498, 6, triangle, attraction, a-b-db, 5, 2, 1, 27, 88, 161, 90, 165, 165, 90, 2, 1.62089
498, 6, triangle, attraction, a-b-da, 9, 1, 1, 28, 60, 135, 135, 60, 129, 57, 1, 4.33408
498, 6, triangle, attraction, a-b-db, 9, 1, 1, 29, 60, 135, 57, 129, 135, 60, 1, 1.46449
498, 6, triangle, attraction, a-b-da, 5, 3, 1, 30, 190, 117, 120, 195, 195, 120, 3, 3.63288
498, 6, triangle, attraction, a-b-db, 5, 1, 1, 31, 60, 135, 58, 132, 135, 60, 2, 11.8417
498, 6, triangle, attraction, a-b-db, 2, 2, 1, 32, 90, 165, 89, 163, 165, 90, 1, 6.39212
498, 6, triangle, attraction, a-b-da, 14, 3, 1, 33, 181, 111, 120, 195, 195, 120, 1, 1.66479
498, 6, triangle, attraction, a-b-db, 2, 3, 1, 34, 119, 193, 195, 120, 120, 195, 2, 2.04745
498, 6, triangle, attraction, a-b-db, 2, 3, 2, 1, 195, 120, 119, 193, 120, 195, 3, 1.20661
498, 6, triangle, attraction, a-b-da, 5, 2, 2, 2, 161, 88, 90, 165, 165, 90, 1, 3.44129
498, 6, triangle, attraction, a-b-db, 9, 3, 2, 3, 120, 195, 114, 186, 195, 120, 2, 1.71392
498, 6, triangle, attraction, a-b-db, 9, 2, 2, 4, 90, 165, 86, 157, 165, 90, 3, 6.82432
498, 6, triangle, filler, NA, 999, 999, 2, 5, 186, 84, 171, 95, 152, 116, 1, 3.31948
498, 6, triangle, attraction, a-b-db, 5, 3, 2, 6, 117, 190, 195, 120, 120, 195, 1, 6.24316
498, 6, triangle, attraction, a-b-da, 5, 1, 2, 7, 60, 135, 132, 58, 135, 60, 1, 1.70812
498, 6, triangle, attraction, a-b-db, 2, 1, 2, 8, 135, 60, 60, 135, 59, 134, 3, 5.82624
498, 6, triangle, attraction, a-b-db, 14, 3, 2, 9, 195, 120, 111, 181, 120, 195, 1, 3.09836
498, 6, triangle, attraction, a-b-da, 9, 3, 2, 10, 186, 114, 195, 120, 120, 195, 1, 5.45616
498, 6, triangle, filler, NA, 999, 999, 2, 11, 140, 99, 85, 195, 91, 154, 1, 4.36503
498, 6, triangle, attraction, a-b-da, 14, 3, 2, 12, 181, 111, 195, 120, 120, 195, 1, 4.50602
498, 6, triangle, attraction, a-b-da, 14, 2, 2, 13, 90, 165, 153, 83, 165, 90, 1, 6.335
498, 6, triangle, attraction, a-b-db, 14, 2, 2, 14, 83, 153, 165, 90, 90, 165, 3, 8.09947
498, 6, triangle, filler, NA, 999, 999, 2, 15, 160, 71, 69, 76, 92, 117, 3, 9.8873
498, 6, triangle, attraction, a-b-db, 9, 1, 2, 16, 135, 60, 60, 135, 57, 129, 1, 4.34784
498, 6, triangle, attraction, a-b-db, 5, 2, 2, 17, 165, 90, 88, 161, 90, 165, 1, 3.3426
498, 6, triangle, filler, NA, 999, 999, 2, 18, 89, 144, 113, 82, 93, 72, 2, 1.26728
498, 6, triangle, attraction, a-b-da, 2, 1, 2, 19, 134, 59, 135, 60, 60, 135, 1, 1.49863
498, 6, triangle, attraction, a-b-da, 9, 1, 2, 20, 60, 135, 135, 60, 129, 57, 1, 35.3701
498, 6, triangle, attraction, a-b-db, 2, 2, 2, 21, 165, 90, 90, 165, 89, 163, 2, 1.57897
498, 6, triangle, filler, NA, 999, 999, 2, 22, 88, 109, 109, 80, 131, 144, 1, 1.83789
498, 6, triangle, attraction, a-b-da, 9, 2, 2, 23, 165, 90, 157, 86, 90, 165, 1, 1.57627
498, 6, triangle, filler, NA, 999, 999, 2, 24, 72, 99, 62, 127, 91, 121, 3, 1.61871
498, 6, triangle, filler, NA, 999, 999, 2, 25, 76, 133, 120, 114, 128, 168, 3, 14.5305
498, 6, triangle, attraction, a-b-da, 2, 2, 2, 26, 163, 89, 90, 165, 165, 90, 3, 2.07605
498, 6, triangle, attraction, a-b-da, 2, 3, 2, 27, 195, 120, 120, 195, 193, 119, 1, 3.31613
498, 6, triangle, attraction, a-b-da, 14, 1, 2, 28, 60, 135, 135, 60, 125, 56, 3, 2.00025
498, 6, triangle, filler, NA, 999, 999, 2, 29, 102, 151, 62, 124, 130, 107, 3, 6.61194
498, 6, triangle, attraction, a-b-db, 14, 1, 2, 30, 60, 135, 135, 60, 56, 125, 3, 23.6617
498, 6, triangle, filler, NA, 999, 999, 2, 31, 124, 171, 172, 177, 165, 96, 1, 8.82848
498, 6, triangle, attraction, a-b-da, 5, 3, 2, 32, 190, 117, 195, 120, 120, 195, 2, 13.5976
498, 6, triangle, attraction, a-b-db, 5, 1, 2, 33, 60, 135, 135, 60, 58, 132, 1, 1.23543
498, 6, triangle, filler, NA, 999, 999, 2, 34, 189, 95, 159, 105, 146, 187, 2, 1.04383
498, 6, triangle, filler, NA, 999, 999, 3, 1, 82, 92, 75, 63, 71, 58, 2, 4.23924
498, 6, triangle, attraction, a-b-da, 5, 3, 3, 2, 195, 120, 190, 117, 120, 195, 2, 1.45325
498, 6, triangle, attraction, a-b-db, 5, 3, 3, 3, 120, 195, 117, 190, 195, 120, 1, 2.69487
498, 6, triangle, attraction, a-b-db, 14, 3, 3, 4, 111, 181, 195, 120, 120, 195, 2, 6.09949
498, 6, triangle, attraction, a-b-da, 9, 3, 3, 5, 186, 114, 120, 195, 195, 120, 2, 10.4874
498, 6, triangle, filler, NA, 999, 999, 3, 6, 84, 135, 93, 126, 186, 186, 2, 11.1899
498, 6, triangle, filler, NA, 999, 999, 3, 7, 161, 149, 93, 58, 195, 61, 1, 6.3967
498, 6, triangle, attraction, a-b-db, 2, 3, 3, 8, 195, 120, 120, 195, 119, 193, 2, 5.3991
498, 6, triangle, attraction, a-b-da, 2, 1, 3, 9, 135, 60, 134, 59, 60, 135, 3, 3.57444
498, 6, triangle, filler, NA, 999, 999, 3, 10, 168, 102, 181, 140, 113, 182, 2, 1.71382
498, 6, triangle, filler, NA, 999, 999, 3, 11, 137, 100, 114, 101, 165, 134, 2, 11.4391
498, 6, triangle, filler, NA, 999, 999, 3, 12, 93, 166, 130, 178, 159, 117, 2, 2.49405
498, 6, triangle, attraction, a-b-db, 9, 1, 3, 13, 57, 129, 135, 60, 60, 135, 3, 3.52421
498, 6, triangle, attraction, a-b-db, 5, 1, 3, 14, 58, 132, 135, 60, 60, 135, 2, 3.31266
498, 6, triangle, filler, NA, 999, 999, 3, 15, 141, 132, 187, 102, 116, 168, 2, 1.39833
498, 6, triangle, attraction, a-b-da, 14, 3, 3, 16, 181, 111, 120, 195, 195, 120, 3, 11.8793
498, 6, triangle, attraction, a-b-db, 14, 1, 3, 17, 135, 60, 56, 125, 60, 135, 3, 7.41326
498, 6, triangle, filler, NA, 999, 999, 3, 18, 116, 64, 156, 151, 123, 183, 1, 3.28412
498, 6, triangle, attraction, a-b-da, 14, 2, 3, 19, 90, 165, 153, 83, 165, 90, 2, 4.24219
498, 6, triangle, attraction, a-b-da, 2, 2, 3, 20, 165, 90, 163, 89, 90, 165, 1, 1.81025
498, 6, triangle, attraction, a-b-db, 2, 1, 3, 21, 60, 135, 135, 60, 59, 134, 2, 3.06709
498, 6, triangle, attraction, a-b-db, 9, 3, 3, 22, 114, 186, 120, 195, 195, 120, 1, 4.08262
498, 6, triangle, attraction, a-b-da, 9, 2, 3, 23, 90, 165, 157, 86, 165, 90, 1, 1.98565
498, 6, triangle, attraction, a-b-da, 14, 1, 3, 24, 125, 56, 135, 60, 60, 135, 1, 3.07556
498, 6, triangle, attraction, a-b-da, 9, 1, 3, 25, 60, 135, 129, 57, 135, 60, 3, 7.75573
498, 6, triangle, attraction, a-b-da, 5, 1, 3, 26, 135, 60, 60, 135, 132, 58, 3, 1.47817
498, 6, triangle, filler, NA, 999, 999, 3, 27, 195, 97, 94, 153, 67, 122, 3, 2.26985
498, 6, triangle, attraction, a-b-db, 2, 2, 3, 28, 90, 165, 165, 90, 89, 163, 1, 1.78132
498, 6, triangle, filler, NA, 999, 999, 3, 29, 162, 65, 154, 173, 189, 78, 2, 7.42359
498, 6, triangle, attraction, a-b-db, 14, 2, 3, 30, 165, 90, 83, 153, 90, 165, 1, 1.63226
498, 6, triangle, attraction, a-b-db, 5, 2, 3, 31, 88, 161, 90, 165, 165, 90, 3, 2.03975
498, 6, triangle, attraction, a-b-da, 5, 2, 3, 32, 161, 88, 165, 90, 90, 165, 2, 1.48002
498, 6, triangle, attraction, a-b-db, 9, 2, 3, 33, 86, 157, 90, 165, 165, 90, 3, 1.9757
498, 6, triangle, attraction, a-b-da, 2, 3, 3, 34, 193, 119, 195, 120, 120, 195, 3, 1.64316
498, 6, triangle, attraction, a-b-da, 14, 3, 4, 1, 120, 195, 195, 120, 181, 111, 2, 0.978039
498, 6, triangle, attraction, a-b-db, 14, 1, 4, 2, 60, 135, 56, 125, 135, 60, 3, 1.58385
498, 6, triangle, filler, NA, 999, 999, 4, 3, 104, 173, 139, 154, 157, 77, 2, 1.33044
498, 6, triangle, attraction, a-b-db, 9, 2, 4, 4, 165, 90, 86, 157, 90, 165, 1, 1.57591
498, 6, triangle, attraction, a-b-db, 14, 3, 4, 5, 120, 195, 111, 181, 195, 120, 2, 2.04357
498, 6, triangle, filler, NA, 999, 999, 4, 6, 103, 69, 76, 138, 102, 117, 3, 1.34995
498, 6, triangle, filler, NA, 999, 999, 4, 7, 56, 118, 154, 152, 88, 174, 2, 1.55152
498, 6, triangle, attraction, a-b-da, 5, 2, 4, 8, 165, 90, 90, 165, 161, 88, 3, 3.71633
498, 6, triangle, attraction, a-b-db, 2, 3, 4, 9, 120, 195, 119, 193, 195, 120, 2, 2.94605
498, 6, triangle, attraction, a-b-da, 2, 2, 4, 10, 165, 90, 90, 165, 163, 89, 1, 4.19
498, 6, triangle, attraction, a-b-da, 2, 1, 4, 11, 135, 60, 134, 59, 60, 135, 3, 1.17583
498, 6, triangle, attraction, a-b-db, 2, 2, 4, 12, 89, 163, 90, 165, 165, 90, 2, 1.00941
498, 6, triangle, filler, NA, 999, 999, 4, 13, 74, 147, 166, 147, 172, 185, 1, 1.31789
498, 6, triangle, attraction, a-b-db, 14, 2, 4, 14, 83, 153, 165, 90, 90, 165, 2, 1.15421
498, 6, triangle, filler, NA, 999, 999, 4, 15, 121, 166, 94, 162, 59, 63, 1, 2.0575
498, 6, triangle, attraction, a-b-db, 2, 1, 4, 16, 135, 60, 59, 134, 60, 135, 1, 1.70356
498, 6, triangle, filler, NA, 999, 999, 4, 17, 113, 63, 78, 110, 89, 161, 3, 3.31019
498, 6, triangle, filler, NA, 999, 999, 4, 18, 152, 173, 140, 125, 90, 175, 3, 2.16284
498, 6, triangle, filler, NA, 999, 999, 4, 19, 147, 175, 161, 110, 138, 122, 1, 1.47972
498, 6, triangle, attraction, a-b-da, 9, 3, 4, 20, 186, 114, 120, 195, 195, 120, 1, 1.0292
498, 6, triangle, attraction, a-b-da, 14, 1, 4, 21, 135, 60, 60, 135, 125, 56, 1, 1.90457
498, 6, triangle, attraction, a-b-da, 9, 1, 4, 22, 129, 57, 60, 135, 135, 60, 3, 1.25546
498, 6, triangle, attraction, a-b-da, 14, 2, 4, 23, 90, 165, 165, 90, 153, 83, 1, 1.0968
498, 6, triangle, attraction, a-b-da, 9, 2, 4, 24, 165, 90, 157, 86, 90, 165, 3, 1.09308
498, 6, triangle, filler, NA, 999, 999, 4, 25, 102, 156, 110, 77, 95, 123, 1, 1.38644
498, 6, triangle, attraction, a-b-db, 5, 3, 4, 26, 195, 120, 117, 190, 120, 195, 2, 1.78307
498, 6, triangle, attraction, a-b-da, 2, 3, 4, 27, 120, 195, 193, 119, 195, 120, 1, 4.39366
498, 6, triangle, attraction, a-b-da, 5, 3, 4, 28, 190, 117, 120, 195, 195, 120, 2, 2.13124
498, 6, triangle, attraction, a-b-db, 9, 1, 4, 29, 57, 129, 135, 60, 60, 135, 1, 1.22497
498, 6, triangle, attraction, a-b-da, 5, 1, 4, 30, 135, 60, 60, 135, 132, 58, 2, 5.09138
498, 6, triangle, attraction, a-b-db, 5, 1, 4, 31, 58, 132, 60, 135, 135, 60, 1, 2.47306
498, 6, triangle, filler, NA, 999, 999, 4, 32, 195, 145, 174, 110, 114, 116, 2, 2.15229
498, 6, triangle, attraction, a-b-db, 9, 3, 4, 33, 114, 186, 195, 120, 120, 195, 1, 2.3784
498, 6, triangle, attraction, a-b-db, 5, 2, 4, 34, 88, 161, 90, 165, 165, 90, 3, 1.11867
