sub_n, computer_n, disp_cond, effect, set, distance, diag, block_n, trial_n, h1, w1, h2, w2, h3, w3, choice, rt 
404, 4, triangle, practice, NA, 999, 999, 0, 1, 155, 72, 56, 162, 139, 80, 3, 2.30473
404, 4, triangle, practice, NA, 999, 999, 0, 2, 195, 102, 171, 76, 90, 179, 3, 2.4704
404, 4, triangle, practice, NA, 999, 999, 0, 3, 125, 180, 138, 153, 73, 66, 1, 1.99996
404, 4, triangle, filler, NA, 999, 999, 1, 1, 119, 105, 177, 157, 192, 107, 2, 2.02379
404, 4, triangle, attraction, a-b-da, 2, 2, 1, 2, 165, 90, 163, 89, 90, 165, 3, 2.08045
404, 4, triangle, attraction, a-b-db, 14, 3, 1, 3, 120, 195, 111, 181, 195, 120, 1, 4.36778
404, 4, triangle, attraction, a-b-da, 14, 2, 1, 4, 153, 83, 90, 165, 165, 90, 2, 3.04445
404, 4, triangle, attraction, a-b-db, 2, 2, 1, 5, 89, 163, 90, 165, 165, 90, 2, 3.7815
404, 4, triangle, filler, NA, 999, 999, 1, 6, 83, 178, 191, 83, 126, 75, 2, 2.0416
404, 4, triangle, filler, NA, 999, 999, 1, 7, 185, 85, 123, 95, 95, 94, 1, 3.86025
404, 4, triangle, filler, NA, 999, 999, 1, 8, 102, 179, 162, 67, 103, 109, 1, 2.0197
404, 4, triangle, attraction, a-b-db, 5, 3, 1, 9, 117, 190, 120, 195, 195, 120, 2, 4.86915
404, 4, triangle, attraction, a-b-db, 14, 2, 1, 10, 83, 153, 90, 165, 165, 90, 2, 2.27156
404, 4, triangle, attraction, a-b-da, 14, 3, 1, 11, 181, 111, 195, 120, 120, 195, 3, 2.51146
404, 4, triangle, attraction, a-b-da, 14, 1, 1, 12, 60, 135, 125, 56, 135, 60, 3, 3.06908
404, 4, triangle, attraction, a-b-db, 9, 1, 1, 13, 135, 60, 57, 129, 60, 135, 1, 3.03507
404, 4, triangle, attraction, a-b-db, 9, 3, 1, 14, 114, 186, 195, 120, 120, 195, 2, 2.59008
404, 4, triangle, attraction, a-b-da, 9, 2, 1, 15, 165, 90, 157, 86, 90, 165, 2, 2.76915
404, 4, triangle, filler, NA, 999, 999, 1, 16, 153, 114, 124, 114, 168, 190, 3, 1.98912
404, 4, triangle, attraction, a-b-da, 2, 1, 1, 17, 60, 135, 134, 59, 135, 60, 2, 2.64228
404, 4, triangle, filler, NA, 999, 999, 1, 18, 78, 166, 193, 115, 86, 62, 2, 2.55305
404, 4, triangle, attraction, a-b-db, 9, 2, 1, 19, 90, 165, 86, 157, 165, 90, 1, 1.81265
404, 4, triangle, attraction, a-b-da, 5, 3, 1, 20, 120, 195, 190, 117, 195, 120, 1, 2.29737
404, 4, triangle, attraction, a-b-da, 9, 3, 1, 21, 195, 120, 120, 195, 186, 114, 2, 3.17547
404, 4, triangle, attraction, a-b-db, 14, 1, 1, 22, 56, 125, 135, 60, 60, 135, 2, 3.14681
404, 4, triangle, attraction, a-b-da, 2, 3, 1, 23, 120, 195, 193, 119, 195, 120, 1, 3.08216
404, 4, triangle, filler, NA, 999, 999, 1, 24, 146, 84, 75, 121, 171, 149, 3, 2.00535
404, 4, triangle, filler, NA, 999, 999, 1, 25, 72, 152, 68, 127, 135, 135, 3, 2.04199
404, 4, triangle, attraction, a-b-da, 9, 1, 1, 26, 129, 57, 60, 135, 135, 60, 2, 2.05032
404, 4, triangle, filler, NA, 999, 999, 1, 27, 145, 142, 98, 142, 109, 139, 1, 1.93165
404, 4, triangle, attraction, a-b-db, 2, 1, 1, 28, 60, 135, 59, 134, 135, 60, 2, 2.62385
404, 4, triangle, attraction, a-b-db, 5, 2, 1, 29, 90, 165, 165, 90, 88, 161, 2, 3.75607
404, 4, triangle, attraction, a-b-da, 5, 1, 1, 30, 132, 58, 135, 60, 60, 135, 3, 2.33536
404, 4, triangle, attraction, a-b-db, 5, 1, 1, 31, 135, 60, 60, 135, 58, 132, 1, 1.78048
404, 4, triangle, attraction, a-b-da, 5, 2, 1, 32, 161, 88, 165, 90, 90, 165, 3, 3.07078
404, 4, triangle, attraction, a-b-db, 2, 3, 1, 33, 195, 120, 119, 193, 120, 195, 2, 4.25964
404, 4, triangle, filler, NA, 999, 999, 1, 34, 115, 137, 170, 68, 103, 66, 1, 1.29033
404, 4, triangle, filler, NA, 999, 999, 2, 1, 159, 110, 190, 169, 171, 151, 2, 1.51253
404, 4, triangle, attraction, a-b-da, 9, 1, 2, 2, 135, 60, 60, 135, 129, 57, 2, 5.5191
404, 4, triangle, attraction, a-b-db, 5, 2, 2, 3, 165, 90, 90, 165, 88, 161, 1, 2.46671
404, 4, triangle, filler, NA, 999, 999, 2, 4, 114, 141, 127, 139, 111, 128, 2, 2.62287
404, 4, triangle, attraction, a-b-da, 5, 2, 2, 5, 90, 165, 161, 88, 165, 90, 3, 3.49381
404, 4, triangle, attraction, a-b-da, 2, 3, 2, 6, 195, 120, 120, 195, 193, 119, 2, 3.14968
404, 4, triangle, attraction, a-b-da, 2, 1, 2, 7, 134, 59, 135, 60, 60, 135, 3, 2.64964
404, 4, triangle, attraction, a-b-db, 9, 1, 2, 8, 60, 135, 57, 129, 135, 60, 1, 3.22647
404, 4, triangle, attraction, a-b-db, 5, 1, 2, 9, 135, 60, 60, 135, 58, 132, 1, 2.42099
404, 4, triangle, filler, NA, 999, 999, 2, 10, 107, 187, 57, 75, 118, 181, 3, 2.4147
404, 4, triangle, attraction, a-b-da, 9, 2, 2, 11, 90, 165, 157, 86, 165, 90, 2, 2.91382
404, 4, triangle, attraction, a-b-db, 2, 2, 2, 12, 165, 90, 90, 165, 89, 163, 2, 1.55894
404, 4, triangle, attraction, a-b-db, 14, 1, 2, 13, 135, 60, 56, 125, 60, 135, 2, 2.23609
404, 4, triangle, filler, NA, 999, 999, 2, 14, 91, 110, 70, 178, 168, 172, 3, 2.1254
404, 4, triangle, attraction, a-b-da, 5, 3, 2, 15, 195, 120, 190, 117, 120, 195, 1, 2.53131
404, 4, triangle, attraction, a-b-db, 14, 3, 2, 16, 120, 195, 195, 120, 111, 181, 2, 2.42343
404, 4, triangle, filler, NA, 999, 999, 2, 17, 123, 103, 131, 101, 90, 67, 2, 2.05819
404, 4, triangle, attraction, a-b-da, 14, 2, 2, 18, 90, 165, 153, 83, 165, 90, 3, 1.48936
404, 4, triangle, attraction, a-b-da, 2, 2, 2, 19, 165, 90, 90, 165, 163, 89, 2, 3.01214
404, 4, triangle, attraction, a-b-da, 9, 3, 2, 20, 186, 114, 195, 120, 120, 195, 3, 1.83517
404, 4, triangle, attraction, a-b-db, 9, 2, 2, 21, 90, 165, 165, 90, 86, 157, 2, 2.04699
404, 4, triangle, attraction, a-b-db, 9, 3, 2, 22, 195, 120, 114, 186, 120, 195, 1, 1.42896
404, 4, triangle, attraction, a-b-db, 5, 3, 2, 23, 195, 120, 120, 195, 117, 190, 2, 2.15298
404, 4, triangle, attraction, a-b-da, 14, 1, 2, 24, 125, 56, 135, 60, 60, 135, 3, 4.05077
404, 4, triangle, filler, NA, 999, 999, 2, 25, 131, 120, 182, 163, 95, 58, 2, 1.75609
404, 4, triangle, attraction, a-b-db, 2, 1, 2, 26, 59, 134, 135, 60, 60, 135, 3, 2.60162
404, 4, triangle, attraction, a-b-db, 14, 2, 2, 27, 165, 90, 90, 165, 83, 153, 1, 1.67518
404, 4, triangle, attraction, a-b-db, 2, 3, 2, 28, 195, 120, 119, 193, 120, 195, 1, 2.74858
404, 4, triangle, filler, NA, 999, 999, 2, 29, 105, 156, 176, 71, 130, 85, 1, 1.97729
404, 4, triangle, filler, NA, 999, 999, 2, 30, 136, 148, 107, 79, 106, 99, 1, 1.51522
404, 4, triangle, attraction, a-b-da, 14, 3, 2, 31, 120, 195, 181, 111, 195, 120, 1, 3.74667
404, 4, triangle, filler, NA, 999, 999, 2, 32, 123, 186, 72, 174, 139, 157, 1, 1.98502
404, 4, triangle, filler, NA, 999, 999, 2, 33, 144, 71, 153, 56, 161, 105, 3, 1.60193
404, 4, triangle, attraction, a-b-da, 5, 1, 2, 34, 132, 58, 135, 60, 60, 135, 1, 3.00708
404, 4, triangle, filler, NA, 999, 999, 3, 1, 63, 172, 114, 79, 64, 103, 1, 1.88053
404, 4, triangle, filler, NA, 999, 999, 3, 2, 189, 152, 176, 187, 180, 154, 2, 1.71946
404, 4, triangle, filler, NA, 999, 999, 3, 3, 59, 180, 85, 175, 61, 60, 2, 2.00525
404, 4, triangle, attraction, a-b-db, 5, 3, 3, 4, 120, 195, 117, 190, 195, 120, 3, 2.14636
404, 4, triangle, filler, NA, 999, 999, 3, 5, 182, 108, 100, 111, 66, 112, 1, 1.86816
404, 4, triangle, attraction, a-b-db, 5, 1, 3, 6, 58, 132, 60, 135, 135, 60, 3, 2.57391
404, 4, triangle, attraction, a-b-db, 2, 2, 3, 7, 89, 163, 90, 165, 165, 90, 3, 2.28235
404, 4, triangle, attraction, a-b-db, 2, 1, 3, 8, 135, 60, 60, 135, 59, 134, 1, 1.72742
404, 4, triangle, attraction, a-b-da, 5, 3, 3, 9, 120, 195, 195, 120, 190, 117, 1, 3.64525
404, 4, triangle, attraction, a-b-db, 9, 3, 3, 10, 114, 186, 120, 195, 195, 120, 2, 1.61547
404, 4, triangle, attraction, a-b-da, 14, 2, 3, 11, 153, 83, 165, 90, 90, 165, 3, 2.61707
404, 4, triangle, filler, NA, 999, 999, 3, 12, 59, 177, 153, 110, 136, 122, 3, 1.61828
404, 4, triangle, attraction, a-b-da, 9, 1, 3, 13, 135, 60, 129, 57, 60, 135, 3, 3.72433
404, 4, triangle, filler, NA, 999, 999, 3, 14, 193, 65, 134, 73, 94, 99, 1, 3.65764
404, 4, triangle, attraction, a-b-da, 2, 3, 3, 15, 193, 119, 120, 195, 195, 120, 1, 2.42832
404, 4, triangle, attraction, a-b-da, 9, 3, 3, 16, 186, 114, 195, 120, 120, 195, 1, 2.14251
404, 4, triangle, attraction, a-b-db, 14, 2, 3, 17, 165, 90, 90, 165, 83, 153, 1, 4.58087
404, 4, triangle, attraction, a-b-da, 14, 3, 3, 18, 181, 111, 195, 120, 120, 195, 2, 1.66136
404, 4, triangle, attraction, a-b-da, 2, 1, 3, 19, 60, 135, 135, 60, 134, 59, 2, 2.3996
404, 4, triangle, filler, NA, 999, 999, 3, 20, 66, 189, 154, 186, 68, 114, 2, 1.6025
404, 4, triangle, attraction, a-b-db, 9, 1, 3, 21, 60, 135, 57, 129, 135, 60, 1, 2.86665
404, 4, triangle, attraction, a-b-db, 5, 2, 3, 22, 90, 165, 88, 161, 165, 90, 1, 2.13323
404, 4, triangle, attraction, a-b-db, 14, 3, 3, 23, 111, 181, 120, 195, 195, 120, 2, 1.93749
404, 4, triangle, attraction, a-b-da, 5, 2, 3, 24, 90, 165, 165, 90, 161, 88, 2, 2.59265
404, 4, triangle, filler, NA, 999, 999, 3, 25, 91, 158, 106, 143, 178, 131, 3, 1.66657
404, 4, triangle, attraction, a-b-da, 9, 2, 3, 26, 165, 90, 90, 165, 157, 86, 1, 2.00887
404, 4, triangle, attraction, a-b-db, 2, 3, 3, 27, 120, 195, 195, 120, 119, 193, 3, 2.6208
404, 4, triangle, attraction, a-b-db, 9, 2, 3, 28, 86, 157, 165, 90, 90, 165, 3, 2.02405
404, 4, triangle, filler, NA, 999, 999, 3, 29, 79, 188, 156, 66, 160, 95, 3, 2.57812
404, 4, triangle, attraction, a-b-da, 2, 2, 3, 30, 90, 165, 163, 89, 165, 90, 2, 1.61303
404, 4, triangle, attraction, a-b-db, 14, 1, 3, 31, 56, 125, 135, 60, 60, 135, 3, 3.13667
404, 4, triangle, attraction, a-b-da, 5, 1, 3, 32, 132, 58, 135, 60, 60, 135, 1, 1.452
404, 4, triangle, attraction, a-b-da, 14, 1, 3, 33, 125, 56, 60, 135, 135, 60, 2, 2.48314
404, 4, triangle, filler, NA, 999, 999, 3, 34, 73, 112, 138, 179, 117, 144, 2, 1.71661
404, 4, triangle, attraction, a-b-da, 5, 2, 4, 1, 161, 88, 90, 165, 165, 90, 1, 1.73752
404, 4, triangle, attraction, a-b-db, 14, 2, 4, 2, 83, 153, 90, 165, 165, 90, 2, 1.92562
404, 4, triangle, attraction, a-b-da, 9, 3, 4, 3, 120, 195, 186, 114, 195, 120, 1, 2.30916
404, 4, triangle, attraction, a-b-db, 9, 2, 4, 4, 90, 165, 165, 90, 86, 157, 1, 2.10915
404, 4, triangle, attraction, a-b-da, 14, 1, 4, 5, 60, 135, 125, 56, 135, 60, 1, 2.19386
404, 4, triangle, attraction, a-b-db, 9, 1, 4, 6, 57, 129, 60, 135, 135, 60, 2, 1.94311
404, 4, triangle, attraction, a-b-db, 14, 1, 4, 7, 60, 135, 135, 60, 56, 125, 1, 2.1396
404, 4, triangle, attraction, a-b-db, 5, 1, 4, 8, 135, 60, 60, 135, 58, 132, 1, 1.76849
404, 4, triangle, attraction, a-b-da, 2, 3, 4, 9, 120, 195, 193, 119, 195, 120, 1, 1.88442
404, 4, triangle, filler, NA, 999, 999, 4, 10, 154, 89, 67, 150, 156, 143, 3, 1.4855
404, 4, triangle, attraction, a-b-da, 14, 3, 4, 11, 195, 120, 120, 195, 181, 111, 2, 2.58567
404, 4, triangle, attraction, a-b-da, 5, 1, 4, 12, 135, 60, 132, 58, 60, 135, 1, 3.01624
404, 4, triangle, attraction, a-b-db, 2, 1, 4, 13, 60, 135, 59, 134, 135, 60, 2, 1.84104
404, 4, triangle, attraction, a-b-db, 5, 2, 4, 14, 165, 90, 88, 161, 90, 165, 2, 2.06583
404, 4, triangle, filler, NA, 999, 999, 4, 15, 138, 142, 74, 187, 154, 162, 3, 1.562
404, 4, triangle, filler, NA, 999, 999, 4, 16, 96, 126, 181, 132, 111, 135, 2, 1.48582
404, 4, triangle, attraction, a-b-db, 14, 3, 4, 17, 120, 195, 195, 120, 111, 181, 2, 2.10854
404, 4, triangle, attraction, a-b-db, 5, 3, 4, 18, 117, 190, 120, 195, 195, 120, 3, 2.11515
404, 4, triangle, attraction, a-b-da, 2, 1, 4, 19, 134, 59, 135, 60, 60, 135, 3, 2.65031
404, 4, triangle, filler, NA, 999, 999, 4, 20, 70, 124, 157, 77, 98, 156, 3, 1.80181
404, 4, triangle, filler, NA, 999, 999, 4, 21, 115, 80, 157, 164, 122, 63, 2, 1.22293
404, 4, triangle, attraction, a-b-da, 14, 2, 4, 22, 90, 165, 165, 90, 153, 83, 1, 2.65437
404, 4, triangle, attraction, a-b-da, 9, 1, 4, 23, 135, 60, 129, 57, 60, 135, 3, 2.93592
404, 4, triangle, attraction, a-b-da, 5, 3, 4, 24, 190, 117, 195, 120, 120, 195, 3, 1.9725
404, 4, triangle, filler, NA, 999, 999, 4, 25, 124, 127, 89, 94, 93, 147, 1, 1.42793
404, 4, triangle, attraction, a-b-da, 9, 2, 4, 26, 165, 90, 157, 86, 90, 165, 3, 2.09848
404, 4, triangle, filler, NA, 999, 999, 4, 27, 161, 99, 96, 174, 181, 85, 2, 1.97966
404, 4, triangle, attraction, a-b-db, 9, 3, 4, 28, 195, 120, 114, 186, 120, 195, 3, 3.47607
404, 4, triangle, attraction, a-b-db, 2, 3, 4, 29, 195, 120, 119, 193, 120, 195, 1, 1.33417
404, 4, triangle, filler, NA, 999, 999, 4, 30, 113, 154, 188, 143, 176, 129, 2, 1.46673
404, 4, triangle, filler, NA, 999, 999, 4, 31, 191, 149, 97, 81, 116, 90, 1, 1.45254
404, 4, triangle, filler, NA, 999, 999, 4, 32, 189, 117, 73, 87, 61, 56, 1, 1.42797
404, 4, triangle, attraction, a-b-db, 2, 2, 4, 33, 165, 90, 90, 165, 89, 163, 3, 2.22853
404, 4, triangle, attraction, a-b-da, 2, 2, 4, 34, 90, 165, 163, 89, 165, 90, 3, 1.84759
