sub_n, computer_n, disp_cond, effect, set, distance, diag, block_n, trial_n, h1, w1, h2, w2, h3, w3, choice, rt 
45, 5, horizontal, practice, NA, 999, 999, 0, 1, 188, 165, 108, 110, 146, 83, 1, 3.1024
45, 5, horizontal, practice, NA, 999, 999, 0, 2, 189, 138, 57, 115, 167, 172, 3, 4.02089
45, 5, horizontal, practice, NA, 999, 999, 0, 3, 56, 126, 136, 114, 180, 147, 3, 1.79791
45, 5, horizontal, filler, NA, 999, 999, 1, 1, 156, 153, 123, 189, 131, 163, 2, 18.7087
45, 5, horizontal, attraction, a-b-db, 9, 3, 1, 2, 195, 120, 114, 186, 120, 195, 3, 2.06687
45, 5, horizontal, filler, NA, 999, 999, 1, 3, 155, 134, 99, 191, 129, 91, 1, 1.70887
45, 5, horizontal, attraction, a-b-db, 14, 3, 1, 4, 195, 120, 120, 195, 111, 181, 2, 1.5087
45, 5, horizontal, attraction, a-b-db, 14, 1, 1, 5, 135, 60, 56, 125, 60, 135, 3, 2.17007
45, 5, horizontal, attraction, a-b-db, 2, 3, 1, 6, 119, 193, 195, 120, 120, 195, 3, 3.37408
45, 5, horizontal, filler, NA, 999, 999, 1, 7, 133, 144, 122, 162, 97, 128, 2, 1.56849
45, 5, horizontal, attraction, a-b-da, 5, 1, 1, 8, 60, 135, 135, 60, 132, 58, 1, 2.26301
45, 5, horizontal, attraction, a-b-db, 9, 1, 1, 9, 60, 135, 135, 60, 57, 129, 1, 2.12558
45, 5, horizontal, attraction, a-b-db, 2, 2, 1, 10, 90, 165, 165, 90, 89, 163, 3, 2.40507
45, 5, horizontal, attraction, a-b-da, 9, 1, 1, 11, 135, 60, 60, 135, 129, 57, 2, 1.67686
45, 5, horizontal, attraction, a-b-da, 2, 1, 1, 12, 60, 135, 134, 59, 135, 60, 1, 1.38186
45, 5, horizontal, attraction, a-b-db, 5, 1, 1, 13, 60, 135, 135, 60, 58, 132, 1, 1.29746
45, 5, horizontal, attraction, a-b-db, 2, 1, 1, 14, 135, 60, 60, 135, 59, 134, 3, 1.18421
45, 5, horizontal, attraction, a-b-db, 5, 2, 1, 15, 90, 165, 165, 90, 88, 161, 2, 1.22844
45, 5, horizontal, filler, NA, 999, 999, 1, 16, 91, 135, 86, 148, 73, 90, 2, 3.34237
45, 5, horizontal, attraction, a-b-da, 5, 2, 1, 17, 165, 90, 90, 165, 161, 88, 2, 1.33004
45, 5, horizontal, filler, NA, 999, 999, 1, 18, 106, 103, 149, 178, 118, 120, 2, 1.36674
45, 5, horizontal, filler, NA, 999, 999, 1, 19, 155, 195, 107, 56, 188, 168, 3, 1.51792
45, 5, horizontal, attraction, a-b-db, 5, 3, 1, 20, 195, 120, 117, 190, 120, 195, 2, 4.11479
45, 5, horizontal, attraction, a-b-da, 9, 3, 1, 21, 195, 120, 186, 114, 120, 195, 3, 3.6488
45, 5, horizontal, filler, NA, 999, 999, 1, 22, 78, 185, 69, 58, 94, 72, 1, 3.10389
45, 5, horizontal, attraction, a-b-da, 14, 2, 1, 23, 153, 83, 90, 165, 165, 90, 2, 1.63115
45, 5, horizontal, filler, NA, 999, 999, 1, 24, 107, 146, 163, 110, 102, 155, 2, 1.74523
45, 5, horizontal, attraction, a-b-da, 5, 3, 1, 25, 120, 195, 190, 117, 195, 120, 1, 1.4459
45, 5, horizontal, attraction, a-b-da, 14, 1, 1, 26, 135, 60, 60, 135, 125, 56, 2, 1.36629
45, 5, horizontal, attraction, a-b-da, 14, 3, 1, 27, 120, 195, 195, 120, 181, 111, 1, 1.5465
45, 5, horizontal, attraction, a-b-db, 9, 2, 1, 28, 86, 157, 90, 165, 165, 90, 2, 3.1366
45, 5, horizontal, attraction, a-b-da, 2, 2, 1, 29, 163, 89, 165, 90, 90, 165, 3, 1.66942
45, 5, horizontal, filler, NA, 999, 999, 1, 30, 84, 187, 159, 142, 164, 117, 2, 1.21996
45, 5, horizontal, attraction, a-b-db, 14, 2, 1, 31, 90, 165, 83, 153, 165, 90, 1, 2.07894
45, 5, horizontal, attraction, a-b-da, 9, 2, 1, 32, 157, 86, 90, 165, 165, 90, 3, 1.58169
45, 5, horizontal, attraction, a-b-da, 2, 3, 1, 33, 120, 195, 193, 119, 195, 120, 3, 1.78609
45, 5, horizontal, filler, NA, 999, 999, 1, 34, 133, 142, 104, 149, 82, 66, 1, 1.43107
45, 5, horizontal, filler, NA, 999, 999, 2, 1, 64, 83, 65, 155, 103, 155, 3, 1.20595
45, 5, horizontal, attraction, a-b-da, 14, 1, 2, 2, 135, 60, 125, 56, 60, 135, 3, 1.3826
45, 5, horizontal, filler, NA, 999, 999, 2, 3, 164, 56, 107, 116, 178, 176, 3, 1.23472
45, 5, horizontal, filler, NA, 999, 999, 2, 4, 119, 156, 142, 122, 105, 84, 1, 4.19741
45, 5, horizontal, attraction, a-b-da, 5, 3, 2, 5, 195, 120, 120, 195, 190, 117, 2, 3.28654
45, 5, horizontal, filler, NA, 999, 999, 2, 6, 148, 81, 151, 161, 102, 139, 2, 1.20941
45, 5, horizontal, attraction, a-b-da, 2, 1, 2, 7, 134, 59, 60, 135, 135, 60, 2, 2.07435
45, 5, horizontal, attraction, a-b-db, 14, 2, 2, 8, 90, 165, 165, 90, 83, 153, 1, 1.74376
45, 5, horizontal, filler, NA, 999, 999, 2, 9, 93, 131, 127, 84, 137, 103, 3, 1.38364
45, 5, horizontal, attraction, a-b-db, 5, 1, 2, 10, 135, 60, 58, 132, 60, 135, 3, 1.72885
45, 5, horizontal, attraction, a-b-db, 14, 1, 2, 11, 60, 135, 56, 125, 135, 60, 1, 1.82392
45, 5, horizontal, filler, NA, 999, 999, 2, 12, 171, 168, 134, 65, 89, 103, 1, 1.26785
45, 5, horizontal, attraction, a-b-da, 9, 2, 2, 13, 165, 90, 157, 86, 90, 165, 3, 1.38402
45, 5, horizontal, attraction, a-b-da, 14, 2, 2, 14, 153, 83, 90, 165, 165, 90, 2, 1.47664
45, 5, horizontal, filler, NA, 999, 999, 2, 15, 62, 138, 119, 184, 81, 125, 2, 1.22814
45, 5, horizontal, attraction, a-b-db, 2, 1, 2, 16, 60, 135, 135, 60, 59, 134, 3, 1.41596
45, 5, horizontal, filler, NA, 999, 999, 2, 17, 140, 67, 83, 167, 146, 107, 3, 2.92967
45, 5, horizontal, attraction, a-b-da, 9, 3, 2, 18, 120, 195, 186, 114, 195, 120, 1, 1.35156
45, 5, horizontal, attraction, a-b-da, 9, 1, 2, 19, 135, 60, 60, 135, 129, 57, 2, 2.81996
45, 5, horizontal, filler, NA, 999, 999, 2, 20, 151, 159, 112, 129, 150, 182, 3, 1.29583
45, 5, horizontal, filler, NA, 999, 999, 2, 21, 133, 170, 175, 91, 79, 141, 1, 1.172
45, 5, horizontal, attraction, a-b-db, 9, 2, 2, 22, 86, 157, 90, 165, 165, 90, 2, 2.43243
45, 5, horizontal, attraction, a-b-da, 5, 1, 2, 23, 132, 58, 135, 60, 60, 135, 3, 1.40139
45, 5, horizontal, attraction, a-b-da, 2, 2, 2, 24, 165, 90, 163, 89, 90, 165, 3, 1.32302
45, 5, horizontal, attraction, a-b-db, 5, 2, 2, 25, 88, 161, 165, 90, 90, 165, 3, 1.41712
45, 5, horizontal, attraction, a-b-db, 9, 3, 2, 26, 120, 195, 114, 186, 195, 120, 1, 3.02762
45, 5, horizontal, attraction, a-b-da, 2, 3, 2, 27, 195, 120, 193, 119, 120, 195, 3, 4.81358
45, 5, horizontal, attraction, a-b-db, 9, 1, 2, 28, 60, 135, 57, 129, 135, 60, 3, 5.63278
45, 5, horizontal, attraction, a-b-db, 5, 3, 2, 29, 117, 190, 195, 120, 120, 195, 3, 3.43126
45, 5, horizontal, attraction, a-b-da, 14, 3, 2, 30, 195, 120, 181, 111, 120, 195, 3, 1.84234
45, 5, horizontal, attraction, a-b-db, 14, 3, 2, 31, 120, 195, 195, 120, 111, 181, 1, 1.28508
45, 5, horizontal, attraction, a-b-db, 2, 3, 2, 32, 195, 120, 119, 193, 120, 195, 3, 17.266
45, 5, horizontal, attraction, a-b-da, 5, 2, 2, 33, 165, 90, 161, 88, 90, 165, 3, 1.37026
45, 5, horizontal, attraction, a-b-db, 2, 2, 2, 34, 165, 90, 90, 165, 89, 163, 3, 1.47715
45, 5, horizontal, attraction, a-b-da, 5, 1, 3, 1, 60, 135, 135, 60, 132, 58, 1, 1.51938
45, 5, horizontal, filler, NA, 999, 999, 3, 2, 87, 174, 175, 162, 187, 131, 2, 1.81134
45, 5, horizontal, attraction, a-b-db, 14, 2, 3, 3, 90, 165, 165, 90, 83, 153, 1, 3.78165
45, 5, horizontal, attraction, a-b-db, 2, 1, 3, 4, 59, 134, 135, 60, 60, 135, 3, 11.5373
45, 5, horizontal, filler, NA, 999, 999, 3, 5, 80, 84, 154, 109, 183, 141, 3, 1.98562
45, 5, horizontal, filler, NA, 999, 999, 3, 6, 111, 148, 183, 128, 177, 193, 3, 1.82793
45, 5, horizontal, attraction, a-b-da, 14, 3, 3, 7, 181, 111, 195, 120, 120, 195, 3, 2.25347
45, 5, horizontal, filler, NA, 999, 999, 3, 8, 102, 136, 179, 193, 118, 120, 2, 2.7733
45, 5, horizontal, filler, NA, 999, 999, 3, 9, 64, 101, 81, 66, 195, 157, 3, 1.37826
45, 5, horizontal, attraction, a-b-da, 5, 2, 3, 10, 161, 88, 165, 90, 90, 165, 3, 1.74404
45, 5, horizontal, attraction, a-b-da, 2, 1, 3, 11, 135, 60, 60, 135, 134, 59, 2, 2.31472
45, 5, horizontal, filler, NA, 999, 999, 3, 12, 159, 111, 186, 101, 85, 142, 1, 1.21108
45, 5, horizontal, attraction, a-b-da, 2, 3, 3, 13, 193, 119, 120, 195, 195, 120, 2, 4.9177
45, 5, horizontal, attraction, a-b-db, 9, 1, 3, 14, 57, 129, 60, 135, 135, 60, 2, 2.2424
45, 5, horizontal, attraction, a-b-da, 5, 3, 3, 15, 195, 120, 120, 195, 190, 117, 2, 1.20372
45, 5, horizontal, attraction, a-b-db, 14, 3, 3, 16, 111, 181, 195, 120, 120, 195, 3, 1.48446
45, 5, horizontal, attraction, a-b-db, 5, 1, 3, 17, 60, 135, 58, 132, 135, 60, 1, 5.01544
45, 5, horizontal, filler, NA, 999, 999, 3, 18, 126, 92, 168, 75, 152, 61, 1, 1.46497
45, 5, horizontal, filler, NA, 999, 999, 3, 19, 169, 155, 155, 168, 117, 173, 1, 1.34363
45, 5, horizontal, filler, NA, 999, 999, 3, 20, 151, 95, 167, 145, 142, 148, 2, 2.20421
45, 5, horizontal, attraction, a-b-db, 9, 2, 3, 21, 165, 90, 86, 157, 90, 165, 3, 1.43858
45, 5, horizontal, attraction, a-b-db, 5, 2, 3, 22, 90, 165, 165, 90, 88, 161, 1, 1.40116
45, 5, horizontal, attraction, a-b-db, 2, 3, 3, 23, 195, 120, 120, 195, 119, 193, 2, 4.18628
45, 5, horizontal, filler, NA, 999, 999, 3, 24, 122, 65, 143, 110, 93, 157, 3, 4.10384
45, 5, horizontal, attraction, a-b-da, 9, 3, 3, 25, 186, 114, 120, 195, 195, 120, 2, 1.5093
45, 5, horizontal, attraction, a-b-da, 14, 2, 3, 26, 165, 90, 153, 83, 90, 165, 3, 1.09948
45, 5, horizontal, attraction, a-b-db, 9, 3, 3, 27, 114, 186, 195, 120, 120, 195, 3, 1.64929
45, 5, horizontal, attraction, a-b-da, 14, 1, 3, 28, 60, 135, 135, 60, 125, 56, 1, 1.86777
45, 5, horizontal, attraction, a-b-db, 14, 1, 3, 29, 135, 60, 56, 125, 60, 135, 3, 2.1642
45, 5, horizontal, attraction, a-b-da, 9, 1, 3, 30, 135, 60, 129, 57, 60, 135, 3, 1.92256
45, 5, horizontal, attraction, a-b-da, 2, 2, 3, 31, 165, 90, 163, 89, 90, 165, 3, 2.09176
45, 5, horizontal, attraction, a-b-db, 2, 2, 3, 32, 90, 165, 165, 90, 89, 163, 3, 2.31114
45, 5, horizontal, attraction, a-b-da, 9, 2, 3, 33, 157, 86, 165, 90, 90, 165, 3, 1.23594
45, 5, horizontal, attraction, a-b-db, 5, 3, 3, 34, 120, 195, 117, 190, 195, 120, 1, 2.41303
45, 5, horizontal, filler, NA, 999, 999, 4, 1, 168, 126, 142, 131, 79, 123, 1, 2.05435
45, 5, horizontal, attraction, a-b-da, 9, 2, 4, 2, 90, 165, 157, 86, 165, 90, 1, 2.44615
45, 5, horizontal, attraction, a-b-db, 14, 3, 4, 3, 195, 120, 120, 195, 111, 181, 2, 3.02432
45, 5, horizontal, attraction, a-b-db, 9, 3, 4, 4, 114, 186, 195, 120, 120, 195, 2, 1.41045
45, 5, horizontal, attraction, a-b-da, 2, 2, 4, 5, 90, 165, 165, 90, 163, 89, 3, 1.7972
45, 5, horizontal, attraction, a-b-da, 2, 3, 4, 6, 195, 120, 120, 195, 193, 119, 2, 3.15748
45, 5, horizontal, filler, NA, 999, 999, 4, 7, 180, 131, 146, 65, 110, 184, 3, 2.01126
45, 5, horizontal, filler, NA, 999, 999, 4, 8, 138, 106, 151, 104, 79, 169, 3, 2.8796
45, 5, horizontal, filler, NA, 999, 999, 4, 9, 87, 126, 56, 79, 177, 183, 3, 1.16609
45, 5, horizontal, attraction, a-b-db, 2, 1, 4, 10, 60, 135, 59, 134, 135, 60, 1, 2.2605
45, 5, horizontal, attraction, a-b-db, 2, 3, 4, 11, 120, 195, 195, 120, 119, 193, 1, 1.61138
45, 5, horizontal, attraction, a-b-db, 14, 2, 4, 12, 90, 165, 165, 90, 83, 153, 1, 1.34978
45, 5, horizontal, attraction, a-b-da, 9, 1, 4, 13, 129, 57, 135, 60, 60, 135, 3, 1.25723
45, 5, horizontal, attraction, a-b-db, 2, 2, 4, 14, 165, 90, 90, 165, 89, 163, 1, 7.08239
45, 5, horizontal, filler, NA, 999, 999, 4, 15, 167, 161, 168, 159, 91, 129, 1, 1.12864
45, 5, horizontal, filler, NA, 999, 999, 4, 16, 93, 185, 104, 118, 132, 65, 1, 5.54485
45, 5, horizontal, attraction, a-b-db, 5, 1, 4, 17, 135, 60, 60, 135, 58, 132, 2, 3.25322
45, 5, horizontal, attraction, a-b-da, 5, 2, 4, 18, 165, 90, 161, 88, 90, 165, 3, 1.37288
45, 5, horizontal, attraction, a-b-da, 5, 1, 4, 19, 135, 60, 132, 58, 60, 135, 1, 2.20111
45, 5, horizontal, filler, NA, 999, 999, 4, 20, 77, 100, 146, 71, 123, 117, 3, 1.68353
45, 5, horizontal, attraction, a-b-db, 9, 1, 4, 21, 60, 135, 135, 60, 57, 129, 1, 8.91553
45, 5, horizontal, attraction, a-b-db, 9, 2, 4, 22, 86, 157, 90, 165, 165, 90, 2, 3.23492
45, 5, horizontal, attraction, a-b-da, 14, 1, 4, 23, 60, 135, 135, 60, 125, 56, 2, 2.55535
45, 5, horizontal, attraction, a-b-db, 5, 3, 4, 24, 195, 120, 117, 190, 120, 195, 3, 4.90369
45, 5, horizontal, attraction, a-b-da, 14, 2, 4, 25, 165, 90, 153, 83, 90, 165, 3, 3.42322
45, 5, horizontal, filler, NA, 999, 999, 4, 26, 190, 135, 77, 124, 180, 169, 3, 1.75044
45, 5, horizontal, attraction, a-b-da, 5, 3, 4, 27, 120, 195, 190, 117, 195, 120, 1, 1.94019
45, 5, horizontal, attraction, a-b-da, 9, 3, 4, 28, 186, 114, 120, 195, 195, 120, 2, 3.1244
45, 5, horizontal, attraction, a-b-db, 5, 2, 4, 29, 90, 165, 165, 90, 88, 161, 1, 15.3196
45, 5, horizontal, attraction, a-b-db, 14, 1, 4, 30, 60, 135, 56, 125, 135, 60, 2, 1.39007
45, 5, horizontal, filler, NA, 999, 999, 4, 31, 117, 61, 108, 110, 184, 144, 3, 1.32023
45, 5, horizontal, attraction, a-b-da, 14, 3, 4, 32, 181, 111, 195, 120, 120, 195, 3, 1.5521
45, 5, horizontal, attraction, a-b-da, 2, 1, 4, 33, 134, 59, 135, 60, 60, 135, 3, 1.49195
45, 5, horizontal, filler, NA, 999, 999, 4, 34, 168, 105, 88, 121, 91, 131, 1, 1.25994
