sub_n, computer_n, disp_cond, effect, set, distance, diag, block_n, trial_n, h1, w1, h2, w2, h3, w3, choice, rt 
201, 2, horizontal, practice, NA, 999, 999, 0, 1, 122, 194, 192, 56, 58, 56, 2, 4.42308
201, 2, horizontal, practice, NA, 999, 999, 0, 2, 116, 182, 100, 60, 59, 100, 1, 2.87008
201, 2, horizontal, practice, NA, 999, 999, 0, 3, 156, 99, 148, 148, 175, 167, 3, 2.86334
201, 2, horizontal, attraction, a-b-da, 9, 3, 1, 1, 195, 120, 120, 195, 186, 114, 3, 5.79413
201, 2, horizontal, attraction, a-b-db, 5, 3, 1, 2, 195, 120, 120, 195, 117, 190, 1, 3.89168
201, 2, horizontal, attraction, a-b-da, 5, 1, 1, 3, 60, 135, 132, 58, 135, 60, 2, 3.30568
201, 2, horizontal, filler, NA, 999, 999, 1, 4, 145, 90, 110, 126, 181, 158, 3, 2.20814
201, 2, horizontal, attraction, a-b-da, 2, 3, 1, 5, 195, 120, 193, 119, 120, 195, 1, 5.98617
201, 2, horizontal, attraction, a-b-da, 14, 3, 1, 6, 195, 120, 181, 111, 120, 195, 1, 2.43448
201, 2, horizontal, attraction, a-b-db, 2, 1, 1, 7, 59, 134, 135, 60, 60, 135, 2, 3.32958
201, 2, horizontal, filler, NA, 999, 999, 1, 8, 155, 93, 170, 146, 78, 140, 2, 1.6001
201, 2, horizontal, attraction, a-b-db, 9, 3, 1, 9, 195, 120, 114, 186, 120, 195, 3, 1.21841
201, 2, horizontal, attraction, a-b-da, 2, 2, 1, 10, 163, 89, 165, 90, 90, 165, 2, 0.994044
201, 2, horizontal, attraction, a-b-db, 9, 1, 1, 11, 135, 60, 60, 135, 57, 129, 2, 2.24837
201, 2, horizontal, attraction, a-b-db, 5, 1, 1, 12, 58, 132, 135, 60, 60, 135, 2, 1.11248
201, 2, horizontal, filler, NA, 999, 999, 1, 13, 79, 106, 70, 145, 149, 108, 3, 1.17446
201, 2, horizontal, attraction, a-b-da, 9, 2, 1, 14, 165, 90, 90, 165, 157, 86, 1, 0.920447
201, 2, horizontal, filler, NA, 999, 999, 1, 15, 135, 143, 76, 118, 94, 118, 1, 1.05497
201, 2, horizontal, attraction, a-b-db, 14, 2, 1, 16, 90, 165, 165, 90, 83, 153, 2, 1.16701
201, 2, horizontal, filler, NA, 999, 999, 1, 17, 121, 71, 182, 126, 160, 168, 3, 1.04272
201, 2, horizontal, filler, NA, 999, 999, 1, 18, 132, 61, 70, 74, 130, 189, 3, 1.04295
201, 2, horizontal, attraction, a-b-da, 5, 2, 1, 19, 90, 165, 161, 88, 165, 90, 1, 1.8585
201, 2, horizontal, attraction, a-b-da, 14, 2, 1, 20, 165, 90, 90, 165, 153, 83, 3, 1.17134
201, 2, horizontal, attraction, a-b-db, 2, 3, 1, 21, 120, 195, 119, 193, 195, 120, 3, 6.79138
201, 2, horizontal, attraction, a-b-db, 9, 2, 1, 22, 90, 165, 165, 90, 86, 157, 2, 1.04901
201, 2, horizontal, attraction, a-b-da, 2, 1, 1, 23, 60, 135, 134, 59, 135, 60, 1, 1.21577
201, 2, horizontal, attraction, a-b-db, 2, 2, 1, 24, 90, 165, 89, 163, 165, 90, 3, 1.12443
201, 2, horizontal, attraction, a-b-db, 14, 1, 1, 25, 56, 125, 60, 135, 135, 60, 2, 1.25703
201, 2, horizontal, attraction, a-b-db, 5, 2, 1, 26, 90, 165, 88, 161, 165, 90, 2, 1.08084
201, 2, horizontal, attraction, a-b-da, 9, 1, 1, 27, 60, 135, 135, 60, 129, 57, 1, 1.1028
201, 2, horizontal, attraction, a-b-da, 5, 3, 1, 28, 120, 195, 190, 117, 195, 120, 3, 1.11092
201, 2, horizontal, filler, NA, 999, 999, 1, 29, 141, 59, 143, 76, 122, 159, 3, 1.12535
201, 2, horizontal, attraction, a-b-db, 14, 3, 1, 30, 111, 181, 120, 195, 195, 120, 3, 1.09909
201, 2, horizontal, filler, NA, 999, 999, 1, 31, 151, 91, 195, 169, 114, 143, 2, 1.22527
201, 2, horizontal, attraction, a-b-da, 14, 1, 1, 32, 60, 135, 135, 60, 125, 56, 1, 1.50484
201, 2, horizontal, filler, NA, 999, 999, 1, 33, 160, 150, 76, 72, 159, 123, 1, 1.29749
201, 2, horizontal, filler, NA, 999, 999, 1, 34, 112, 98, 91, 193, 145, 70, 2, 2.04683
201, 2, horizontal, attraction, a-b-da, 14, 1, 2, 1, 135, 60, 60, 135, 125, 56, 1, 3.80694
201, 2, horizontal, attraction, a-b-da, 9, 1, 2, 2, 135, 60, 129, 57, 60, 135, 3, 1.95974
201, 2, horizontal, attraction, a-b-db, 2, 1, 2, 3, 59, 134, 135, 60, 60, 135, 2, 1.23704
201, 2, horizontal, attraction, a-b-da, 2, 1, 2, 4, 134, 59, 60, 135, 135, 60, 1, 1.49384
201, 2, horizontal, filler, NA, 999, 999, 2, 5, 89, 143, 175, 100, 108, 146, 2, 1.25037
201, 2, horizontal, attraction, a-b-da, 5, 1, 2, 6, 135, 60, 132, 58, 60, 135, 2, 1.99628
201, 2, horizontal, attraction, a-b-db, 9, 3, 2, 7, 120, 195, 195, 120, 114, 186, 2, 1.32698
201, 2, horizontal, filler, NA, 999, 999, 2, 8, 104, 56, 175, 85, 67, 184, 2, 1.15885
201, 2, horizontal, attraction, a-b-db, 14, 3, 2, 9, 111, 181, 195, 120, 120, 195, 2, 2.89684
201, 2, horizontal, attraction, a-b-da, 5, 3, 2, 10, 195, 120, 190, 117, 120, 195, 2, 0.977133
201, 2, horizontal, attraction, a-b-da, 9, 2, 2, 11, 165, 90, 157, 86, 90, 165, 3, 10.4587
201, 2, horizontal, attraction, a-b-da, 2, 2, 2, 12, 165, 90, 90, 165, 163, 89, 3, 1.27973
201, 2, horizontal, filler, NA, 999, 999, 2, 13, 81, 70, 56, 133, 173, 95, 3, 2.25623
201, 2, horizontal, filler, NA, 999, 999, 2, 14, 170, 108, 82, 67, 122, 119, 1, 1.7448
201, 2, horizontal, attraction, a-b-da, 14, 3, 2, 15, 181, 111, 120, 195, 195, 120, 3, 5.52319
201, 2, horizontal, filler, NA, 999, 999, 2, 16, 121, 148, 58, 101, 109, 66, 1, 1.52809
201, 2, horizontal, attraction, a-b-db, 9, 2, 2, 17, 90, 165, 86, 157, 165, 90, 3, 7.82091
201, 2, horizontal, attraction, a-b-db, 2, 3, 2, 18, 120, 195, 195, 120, 119, 193, 2, 1.05426
201, 2, horizontal, filler, NA, 999, 999, 2, 19, 153, 70, 161, 70, 192, 157, 3, 0.925027
201, 2, horizontal, attraction, a-b-db, 14, 1, 2, 20, 135, 60, 56, 125, 60, 135, 1, 0.994127
201, 2, horizontal, attraction, a-b-db, 14, 2, 2, 21, 165, 90, 90, 165, 83, 153, 1, 3.44688
201, 2, horizontal, attraction, a-b-da, 2, 3, 2, 22, 120, 195, 193, 119, 195, 120, 3, 1.19902
201, 2, horizontal, filler, NA, 999, 999, 2, 23, 167, 99, 74, 163, 141, 186, 1, 1.07946
201, 2, horizontal, attraction, a-b-db, 5, 2, 2, 24, 165, 90, 90, 165, 88, 161, 3, 1.01627
201, 2, horizontal, attraction, a-b-db, 9, 1, 2, 25, 60, 135, 57, 129, 135, 60, 3, 1.09031
201, 2, horizontal, filler, NA, 999, 999, 2, 26, 159, 98, 123, 91, 147, 171, 3, 1.06363
201, 2, horizontal, attraction, a-b-db, 2, 2, 2, 27, 165, 90, 90, 165, 89, 163, 1, 1.89734
201, 2, horizontal, attraction, a-b-da, 9, 3, 2, 28, 120, 195, 195, 120, 186, 114, 1, 1.24937
201, 2, horizontal, attraction, a-b-da, 14, 2, 2, 29, 90, 165, 153, 83, 165, 90, 3, 6.05668
201, 2, horizontal, filler, NA, 999, 999, 2, 30, 112, 187, 72, 138, 187, 85, 1, 4.99191
201, 2, horizontal, attraction, a-b-da, 5, 2, 2, 31, 161, 88, 165, 90, 90, 165, 3, 2.39955
201, 2, horizontal, attraction, a-b-db, 5, 3, 2, 32, 120, 195, 195, 120, 117, 190, 2, 1.4501
201, 2, horizontal, attraction, a-b-db, 5, 1, 2, 33, 135, 60, 58, 132, 60, 135, 1, 2.49865
201, 2, horizontal, filler, NA, 999, 999, 2, 34, 84, 123, 104, 59, 177, 86, 3, 1.15834
201, 2, horizontal, filler, NA, 999, 999, 3, 1, 149, 82, 140, 122, 160, 92, 2, 1.03671
201, 2, horizontal, attraction, a-b-db, 2, 3, 3, 2, 195, 120, 120, 195, 119, 193, 3, 0.94794
201, 2, horizontal, attraction, a-b-da, 2, 1, 3, 3, 135, 60, 60, 135, 134, 59, 1, 1.35306
201, 2, horizontal, attraction, a-b-da, 14, 1, 3, 4, 135, 60, 125, 56, 60, 135, 1, 2.25469
201, 2, horizontal, attraction, a-b-db, 9, 1, 3, 5, 135, 60, 60, 135, 57, 129, 1, 1.8875
201, 2, horizontal, filler, NA, 999, 999, 3, 6, 186, 174, 188, 62, 176, 173, 1, 2.06003
201, 2, horizontal, attraction, a-b-da, 9, 2, 3, 7, 157, 86, 165, 90, 90, 165, 2, 1.30861
201, 2, horizontal, filler, NA, 999, 999, 3, 8, 149, 171, 83, 190, 135, 188, 3, 1.67542
201, 2, horizontal, attraction, a-b-da, 5, 2, 3, 9, 90, 165, 161, 88, 165, 90, 2, 3.84255
201, 2, horizontal, filler, NA, 999, 999, 3, 10, 129, 182, 177, 118, 103, 109, 2, 1.31335
201, 2, horizontal, attraction, a-b-db, 9, 2, 3, 11, 90, 165, 165, 90, 86, 157, 2, 1.20649
201, 2, horizontal, attraction, a-b-db, 5, 2, 3, 12, 90, 165, 165, 90, 88, 161, 2, 1.37813
201, 2, horizontal, attraction, a-b-db, 14, 2, 3, 13, 83, 153, 165, 90, 90, 165, 2, 1.00623
201, 2, horizontal, attraction, a-b-da, 14, 2, 3, 14, 165, 90, 153, 83, 90, 165, 2, 1.11133
201, 2, horizontal, attraction, a-b-da, 2, 2, 3, 15, 165, 90, 90, 165, 163, 89, 1, 1.16825
201, 2, horizontal, attraction, a-b-db, 2, 1, 3, 16, 135, 60, 59, 134, 60, 135, 1, 1.33098
201, 2, horizontal, attraction, a-b-da, 5, 3, 3, 17, 190, 117, 195, 120, 120, 195, 2, 1.12001
201, 2, horizontal, attraction, a-b-db, 5, 1, 3, 18, 60, 135, 58, 132, 135, 60, 2, 1.28576
201, 2, horizontal, attraction, a-b-db, 14, 3, 3, 19, 120, 195, 111, 181, 195, 120, 3, 1.15668
201, 2, horizontal, filler, NA, 999, 999, 3, 20, 155, 64, 93, 113, 178, 112, 3, 1.39878
201, 2, horizontal, attraction, a-b-db, 5, 3, 3, 21, 195, 120, 120, 195, 117, 190, 1, 1.28984
201, 2, horizontal, attraction, a-b-da, 2, 3, 3, 22, 193, 119, 195, 120, 120, 195, 1, 1.37899
201, 2, horizontal, filler, NA, 999, 999, 3, 23, 112, 144, 56, 125, 148, 97, 3, 1.34128
201, 2, horizontal, attraction, a-b-da, 9, 3, 3, 24, 195, 120, 120, 195, 186, 114, 1, 1.67289
201, 2, horizontal, attraction, a-b-db, 2, 2, 3, 25, 165, 90, 90, 165, 89, 163, 1, 1.64167
201, 2, horizontal, attraction, a-b-da, 14, 3, 3, 26, 120, 195, 181, 111, 195, 120, 3, 2.70491
201, 2, horizontal, filler, NA, 999, 999, 3, 27, 154, 156, 131, 60, 178, 145, 3, 1.47901
201, 2, horizontal, attraction, a-b-da, 5, 1, 3, 28, 132, 58, 60, 135, 135, 60, 1, 1.12733
201, 2, horizontal, filler, NA, 999, 999, 3, 29, 60, 161, 69, 123, 152, 121, 3, 1.05347
201, 2, horizontal, attraction, a-b-da, 9, 1, 3, 30, 135, 60, 129, 57, 60, 135, 1, 1.98911
201, 2, horizontal, attraction, a-b-db, 14, 1, 3, 31, 56, 125, 60, 135, 135, 60, 2, 1.21651
201, 2, horizontal, filler, NA, 999, 999, 3, 32, 165, 149, 87, 84, 89, 130, 1, 1.07924
201, 2, horizontal, filler, NA, 999, 999, 3, 33, 98, 78, 133, 77, 138, 180, 3, 3.3373
201, 2, horizontal, attraction, a-b-db, 9, 3, 3, 34, 114, 186, 120, 195, 195, 120, 3, 1.01144
201, 2, horizontal, attraction, a-b-db, 9, 3, 4, 1, 114, 186, 120, 195, 195, 120, 3, 1.21484
201, 2, horizontal, filler, NA, 999, 999, 4, 2, 107, 177, 144, 163, 77, 103, 2, 1.11316
201, 2, horizontal, attraction, a-b-da, 14, 1, 4, 3, 125, 56, 135, 60, 60, 135, 2, 1.39127
201, 2, horizontal, filler, NA, 999, 999, 4, 4, 166, 87, 138, 104, 59, 138, 1, 1.19478
201, 2, horizontal, attraction, a-b-da, 2, 3, 4, 5, 195, 120, 193, 119, 120, 195, 1, 1.42804
201, 2, horizontal, filler, NA, 999, 999, 4, 6, 68, 168, 132, 96, 122, 97, 2, 1.02327
201, 2, horizontal, filler, NA, 999, 999, 4, 7, 82, 84, 186, 82, 186, 95, 3, 1.08881
201, 2, horizontal, filler, NA, 999, 999, 4, 8, 140, 175, 111, 120, 148, 112, 1, 1.18425
201, 2, horizontal, filler, NA, 999, 999, 4, 9, 125, 71, 141, 88, 135, 108, 3, 1.15563
201, 2, horizontal, attraction, a-b-da, 2, 1, 4, 10, 135, 60, 60, 135, 134, 59, 3, 2.87027
201, 2, horizontal, attraction, a-b-da, 5, 3, 4, 11, 195, 120, 190, 117, 120, 195, 1, 1.20577
201, 2, horizontal, attraction, a-b-da, 14, 2, 4, 12, 90, 165, 153, 83, 165, 90, 2, 1.38328
201, 2, horizontal, attraction, a-b-da, 14, 3, 4, 13, 181, 111, 120, 195, 195, 120, 2, 1.59523
201, 2, horizontal, attraction, a-b-db, 2, 2, 4, 14, 90, 165, 89, 163, 165, 90, 3, 1.06867
201, 2, horizontal, attraction, a-b-db, 14, 3, 4, 15, 111, 181, 120, 195, 195, 120, 2, 0.949691
201, 2, horizontal, attraction, a-b-db, 9, 2, 4, 16, 165, 90, 90, 165, 86, 157, 1, 1.12275
201, 2, horizontal, attraction, a-b-db, 5, 2, 4, 17, 90, 165, 165, 90, 88, 161, 2, 1.08601
201, 2, horizontal, attraction, a-b-da, 9, 2, 4, 18, 90, 165, 165, 90, 157, 86, 2, 1.00681
201, 2, horizontal, filler, NA, 999, 999, 4, 19, 195, 88, 116, 149, 167, 101, 3, 0.975259
201, 2, horizontal, attraction, a-b-da, 5, 2, 4, 20, 90, 165, 165, 90, 161, 88, 2, 1.03476
201, 2, horizontal, attraction, a-b-db, 2, 1, 4, 21, 59, 134, 60, 135, 135, 60, 3, 1.21433
201, 2, horizontal, attraction, a-b-da, 2, 2, 4, 22, 163, 89, 90, 165, 165, 90, 1, 1.07856
201, 2, horizontal, attraction, a-b-db, 5, 1, 4, 23, 135, 60, 58, 132, 60, 135, 2, 1.07069
201, 2, horizontal, filler, NA, 999, 999, 4, 24, 65, 182, 181, 85, 169, 175, 3, 0.948742
201, 2, horizontal, attraction, a-b-db, 5, 3, 4, 25, 120, 195, 117, 190, 195, 120, 3, 0.936159
201, 2, horizontal, attraction, a-b-da, 9, 1, 4, 26, 129, 57, 60, 135, 135, 60, 2, 1.20689
201, 2, horizontal, attraction, a-b-da, 5, 1, 4, 27, 60, 135, 135, 60, 132, 58, 2, 0.977014
201, 2, horizontal, attraction, a-b-db, 14, 2, 4, 28, 165, 90, 83, 153, 90, 165, 1, 1.27581
201, 2, horizontal, filler, NA, 999, 999, 4, 29, 81, 125, 105, 152, 154, 145, 3, 0.901075
201, 2, horizontal, attraction, a-b-db, 14, 1, 4, 30, 60, 135, 135, 60, 56, 125, 2, 1.16306
201, 2, horizontal, filler, NA, 999, 999, 4, 31, 121, 84, 138, 68, 84, 176, 1, 1.20525
201, 2, horizontal, attraction, a-b-db, 2, 3, 4, 32, 119, 193, 120, 195, 195, 120, 1, 1.22583
201, 2, horizontal, attraction, a-b-db, 9, 1, 4, 33, 57, 129, 135, 60, 60, 135, 3, 1.16369
201, 2, horizontal, attraction, a-b-da, 9, 3, 4, 34, 195, 120, 120, 195, 186, 114, 1, 2.62256
