sub_n, computer_n, disp_cond, effect, set, distance, diag, block_n, trial_n, h1, w1, h2, w2, h3, w3, choice, rt 
124, 1, triangle, practice, NA, 999, 999, 0, 1, 152, 155, 100, 122, 154, 107, 1, 2.90102
124, 1, triangle, practice, NA, 999, 999, 0, 2, 134, 171, 172, 79, 170, 126, 1, 3.86729
124, 1, triangle, practice, NA, 999, 999, 0, 3, 166, 94, 102, 186, 162, 84, 2, 2.57058
124, 1, triangle, attraction, a-b-da, 9, 2, 1, 1, 157, 86, 90, 165, 165, 90, 2, 5.78655
124, 1, triangle, filler, NA, 999, 999, 1, 2, 61, 134, 82, 59, 129, 90, 3, 1.65917
124, 1, triangle, attraction, a-b-da, 2, 3, 1, 3, 193, 119, 120, 195, 195, 120, 2, 1.82928
124, 1, triangle, attraction, a-b-da, 2, 2, 1, 4, 163, 89, 165, 90, 90, 165, 3, 2.34922
124, 1, triangle, attraction, a-b-da, 5, 2, 1, 5, 165, 90, 161, 88, 90, 165, 3, 2.24319
124, 1, triangle, attraction, a-b-db, 2, 2, 1, 6, 165, 90, 89, 163, 90, 165, 1, 3.73925
124, 1, triangle, attraction, a-b-da, 5, 1, 1, 7, 60, 135, 135, 60, 132, 58, 2, 2.90227
124, 1, triangle, attraction, a-b-db, 5, 1, 1, 8, 58, 132, 60, 135, 135, 60, 2, 3.94055
124, 1, triangle, filler, NA, 999, 999, 1, 9, 129, 91, 69, 146, 58, 172, 1, 1.60656
124, 1, triangle, filler, NA, 999, 999, 1, 10, 91, 182, 60, 104, 92, 72, 1, 1.66687
124, 1, triangle, attraction, a-b-db, 5, 2, 1, 11, 90, 165, 165, 90, 88, 161, 2, 3.54422
124, 1, triangle, attraction, a-b-da, 14, 1, 1, 12, 125, 56, 135, 60, 60, 135, 3, 1.72606
124, 1, triangle, filler, NA, 999, 999, 1, 13, 83, 84, 75, 193, 83, 91, 2, 1.13873
124, 1, triangle, attraction, a-b-da, 9, 3, 1, 14, 186, 114, 120, 195, 195, 120, 3, 3.55974
124, 1, triangle, attraction, a-b-db, 5, 3, 1, 15, 120, 195, 195, 120, 117, 190, 2, 2.76272
124, 1, triangle, attraction, a-b-da, 2, 1, 1, 16, 135, 60, 60, 135, 134, 59, 2, 2.17645
124, 1, triangle, filler, NA, 999, 999, 1, 17, 133, 152, 93, 88, 98, 94, 1, 1.56338
124, 1, triangle, attraction, a-b-da, 5, 3, 1, 18, 120, 195, 190, 117, 195, 120, 1, 1.6776
124, 1, triangle, attraction, a-b-db, 9, 2, 1, 19, 86, 157, 165, 90, 90, 165, 3, 1.79928
124, 1, triangle, filler, NA, 999, 999, 1, 20, 87, 84, 119, 175, 94, 142, 2, 1.62505
124, 1, triangle, filler, NA, 999, 999, 1, 21, 133, 149, 170, 145, 181, 91, 2, 1.6014
124, 1, triangle, attraction, a-b-db, 9, 1, 1, 22, 57, 129, 60, 135, 135, 60, 3, 2.06985
124, 1, triangle, attraction, a-b-da, 9, 1, 1, 23, 135, 60, 60, 135, 129, 57, 2, 1.68412
124, 1, triangle, attraction, a-b-da, 14, 3, 1, 24, 120, 195, 181, 111, 195, 120, 1, 1.85765
124, 1, triangle, filler, NA, 999, 999, 1, 25, 164, 136, 104, 195, 74, 101, 2, 1.93179
124, 1, triangle, attraction, a-b-da, 14, 2, 1, 26, 153, 83, 90, 165, 165, 90, 3, 1.39256
124, 1, triangle, filler, NA, 999, 999, 1, 27, 193, 73, 143, 192, 129, 127, 2, 1.22666
124, 1, triangle, filler, NA, 999, 999, 1, 28, 107, 138, 182, 160, 173, 158, 2, 1.49068
124, 1, triangle, attraction, a-b-db, 14, 3, 1, 29, 111, 181, 195, 120, 120, 195, 3, 4.21644
124, 1, triangle, attraction, a-b-db, 2, 1, 1, 30, 59, 134, 135, 60, 60, 135, 2, 1.91587
124, 1, triangle, attraction, a-b-db, 14, 1, 1, 31, 60, 135, 135, 60, 56, 125, 1, 2.77838
124, 1, triangle, attraction, a-b-db, 9, 3, 1, 32, 120, 195, 114, 186, 195, 120, 2, 1.41138
124, 1, triangle, attraction, a-b-db, 2, 3, 1, 33, 120, 195, 119, 193, 195, 120, 3, 2.68626
124, 1, triangle, attraction, a-b-db, 14, 2, 1, 34, 90, 165, 165, 90, 83, 153, 2, 2.02062
124, 1, triangle, attraction, a-b-da, 5, 3, 2, 1, 120, 195, 190, 117, 195, 120, 1, 1.52554
124, 1, triangle, filler, NA, 999, 999, 2, 2, 76, 120, 112, 142, 94, 130, 2, 1.35452
124, 1, triangle, attraction, a-b-db, 14, 2, 2, 3, 165, 90, 83, 153, 90, 165, 1, 1.599
124, 1, triangle, attraction, a-b-db, 5, 3, 2, 4, 117, 190, 120, 195, 195, 120, 3, 2.21654
124, 1, triangle, attraction, a-b-da, 14, 1, 2, 5, 135, 60, 125, 56, 60, 135, 1, 5.15364
124, 1, triangle, attraction, a-b-da, 9, 2, 2, 6, 157, 86, 165, 90, 90, 165, 3, 2.78778
124, 1, triangle, attraction, a-b-db, 14, 1, 2, 7, 56, 125, 60, 135, 135, 60, 2, 2.17588
124, 1, triangle, attraction, a-b-db, 9, 3, 2, 8, 114, 186, 120, 195, 195, 120, 2, 2.8286
124, 1, triangle, filler, NA, 999, 999, 2, 9, 134, 102, 177, 71, 86, 83, 1, 3.22801
124, 1, triangle, filler, NA, 999, 999, 2, 10, 112, 187, 124, 154, 97, 126, 1, 2.51631
124, 1, triangle, attraction, a-b-db, 9, 2, 2, 11, 86, 157, 90, 165, 165, 90, 3, 1.37017
124, 1, triangle, attraction, a-b-db, 2, 2, 2, 12, 165, 90, 90, 165, 89, 163, 1, 2.35702
124, 1, triangle, attraction, a-b-da, 14, 2, 2, 13, 90, 165, 165, 90, 153, 83, 2, 1.28883
124, 1, triangle, attraction, a-b-da, 2, 1, 2, 14, 60, 135, 134, 59, 135, 60, 1, 1.8407
124, 1, triangle, attraction, a-b-db, 9, 1, 2, 15, 60, 135, 135, 60, 57, 129, 1, 1.80898
124, 1, triangle, attraction, a-b-da, 2, 3, 2, 16, 193, 119, 120, 195, 195, 120, 1, 1.8348
124, 1, triangle, filler, NA, 999, 999, 2, 17, 99, 172, 76, 156, 109, 94, 1, 1.10895
124, 1, triangle, filler, NA, 999, 999, 2, 18, 166, 105, 112, 163, 168, 99, 2, 1.57985
124, 1, triangle, attraction, a-b-da, 5, 2, 2, 19, 161, 88, 90, 165, 165, 90, 3, 1.50202
124, 1, triangle, filler, NA, 999, 999, 2, 20, 160, 99, 126, 195, 65, 94, 2, 1.34913
124, 1, triangle, attraction, a-b-db, 5, 2, 2, 21, 90, 165, 88, 161, 165, 90, 3, 1.79294
124, 1, triangle, filler, NA, 999, 999, 2, 22, 97, 163, 122, 62, 99, 181, 3, 1.6362
124, 1, triangle, attraction, a-b-db, 2, 3, 2, 23, 119, 193, 120, 195, 195, 120, 1, 3.06045
124, 1, triangle, filler, NA, 999, 999, 2, 24, 154, 100, 72, 72, 154, 143, 3, 1.33153
124, 1, triangle, attraction, a-b-da, 14, 3, 2, 25, 120, 195, 181, 111, 195, 120, 3, 1.39325
124, 1, triangle, filler, NA, 999, 999, 2, 26, 169, 87, 147, 148, 94, 66, 2, 1.46666
124, 1, triangle, attraction, a-b-db, 2, 1, 2, 27, 59, 134, 135, 60, 60, 135, 3, 3.06739
124, 1, triangle, attraction, a-b-da, 5, 1, 2, 28, 135, 60, 132, 58, 60, 135, 3, 2.08993
124, 1, triangle, attraction, a-b-da, 9, 1, 2, 29, 60, 135, 129, 57, 135, 60, 1, 1.54618
124, 1, triangle, attraction, a-b-da, 2, 2, 2, 30, 163, 89, 90, 165, 165, 90, 2, 3.20587
124, 1, triangle, attraction, a-b-db, 5, 1, 2, 31, 135, 60, 58, 132, 60, 135, 3, 3.5994
124, 1, triangle, attraction, a-b-da, 9, 3, 2, 32, 186, 114, 195, 120, 120, 195, 2, 1.46238
124, 1, triangle, filler, NA, 999, 999, 2, 33, 155, 182, 72, 155, 161, 107, 1, 1.34456
124, 1, triangle, attraction, a-b-db, 14, 3, 2, 34, 195, 120, 111, 181, 120, 195, 1, 1.97938
124, 1, triangle, attraction, a-b-db, 14, 3, 3, 1, 120, 195, 111, 181, 195, 120, 3, 4.55423
124, 1, triangle, filler, NA, 999, 999, 3, 2, 189, 106, 98, 178, 147, 189, 3, 1.95391
124, 1, triangle, filler, NA, 999, 999, 3, 3, 127, 163, 140, 95, 180, 67, 1, 1.32825
124, 1, triangle, attraction, a-b-db, 5, 1, 3, 4, 58, 132, 135, 60, 60, 135, 3, 1.62042
124, 1, triangle, attraction, a-b-da, 14, 2, 3, 5, 90, 165, 165, 90, 153, 83, 2, 1.54094
124, 1, triangle, filler, NA, 999, 999, 3, 6, 84, 112, 109, 114, 137, 87, 3, 1.84381
124, 1, triangle, attraction, a-b-db, 2, 3, 3, 7, 195, 120, 120, 195, 119, 193, 1, 1.16422
124, 1, triangle, attraction, a-b-da, 14, 1, 3, 8, 125, 56, 60, 135, 135, 60, 3, 2.45639
124, 1, triangle, attraction, a-b-da, 5, 1, 3, 9, 60, 135, 135, 60, 132, 58, 1, 2.1607
124, 1, triangle, attraction, a-b-db, 5, 3, 3, 10, 120, 195, 117, 190, 195, 120, 2, 1.48388
124, 1, triangle, attraction, a-b-da, 9, 2, 3, 11, 165, 90, 90, 165, 157, 86, 2, 1.47556
124, 1, triangle, attraction, a-b-da, 2, 1, 3, 12, 60, 135, 135, 60, 134, 59, 1, 1.98543
124, 1, triangle, attraction, a-b-db, 2, 2, 3, 13, 165, 90, 89, 163, 90, 165, 1, 3.2373
124, 1, triangle, attraction, a-b-da, 5, 2, 3, 14, 90, 165, 161, 88, 165, 90, 1, 2.01352
124, 1, triangle, attraction, a-b-db, 2, 1, 3, 15, 135, 60, 60, 135, 59, 134, 2, 1.65503
124, 1, triangle, attraction, a-b-da, 2, 3, 3, 16, 195, 120, 193, 119, 120, 195, 3, 1.47931
124, 1, triangle, attraction, a-b-da, 9, 1, 3, 17, 129, 57, 60, 135, 135, 60, 2, 1.43753
124, 1, triangle, filler, NA, 999, 999, 3, 18, 166, 142, 148, 127, 112, 169, 1, 1.39027
124, 1, triangle, attraction, a-b-da, 14, 3, 3, 19, 120, 195, 181, 111, 195, 120, 1, 1.76421
124, 1, triangle, filler, NA, 999, 999, 3, 20, 106, 165, 58, 92, 80, 134, 1, 1.37329
124, 1, triangle, filler, NA, 999, 999, 3, 21, 79, 183, 83, 181, 127, 59, 2, 3.04291
124, 1, triangle, filler, NA, 999, 999, 3, 22, 137, 91, 135, 108, 147, 90, 1, 1.76436
124, 1, triangle, attraction, a-b-da, 5, 3, 3, 23, 195, 120, 190, 117, 120, 195, 3, 1.8306
124, 1, triangle, attraction, a-b-db, 14, 1, 3, 24, 135, 60, 60, 135, 56, 125, 2, 1.97671
124, 1, triangle, filler, NA, 999, 999, 3, 25, 78, 129, 190, 76, 165, 173, 3, 1.73309
124, 1, triangle, attraction, a-b-db, 9, 2, 3, 26, 86, 157, 165, 90, 90, 165, 1, 4.54438
124, 1, triangle, filler, NA, 999, 999, 3, 27, 67, 80, 135, 175, 107, 91, 2, 1.31645
124, 1, triangle, attraction, a-b-db, 9, 1, 3, 28, 57, 129, 60, 135, 135, 60, 2, 1.58693
124, 1, triangle, filler, NA, 999, 999, 3, 29, 191, 126, 103, 62, 65, 165, 1, 1.53121
124, 1, triangle, attraction, a-b-da, 9, 3, 3, 30, 186, 114, 120, 195, 195, 120, 2, 1.73738
124, 1, triangle, attraction, a-b-da, 2, 2, 3, 31, 163, 89, 165, 90, 90, 165, 3, 1.88561
124, 1, triangle, attraction, a-b-db, 14, 2, 3, 32, 165, 90, 83, 153, 90, 165, 3, 2.5338
124, 1, triangle, attraction, a-b-db, 5, 2, 3, 33, 165, 90, 88, 161, 90, 165, 2, 2.04828
124, 1, triangle, attraction, a-b-db, 9, 3, 3, 34, 120, 195, 195, 120, 114, 186, 1, 1.96062
124, 1, triangle, attraction, a-b-da, 2, 2, 4, 1, 165, 90, 163, 89, 90, 165, 3, 1.40592
124, 1, triangle, attraction, a-b-db, 2, 1, 4, 2, 59, 134, 135, 60, 60, 135, 2, 1.48877
124, 1, triangle, attraction, a-b-da, 9, 3, 4, 3, 186, 114, 120, 195, 195, 120, 2, 1.39195
124, 1, triangle, attraction, a-b-da, 5, 2, 4, 4, 90, 165, 161, 88, 165, 90, 1, 2.05783
124, 1, triangle, attraction, a-b-db, 9, 1, 4, 5, 57, 129, 135, 60, 60, 135, 3, 1.88108
124, 1, triangle, filler, NA, 999, 999, 4, 6, 167, 170, 192, 117, 72, 124, 1, 1.04269
124, 1, triangle, attraction, a-b-db, 2, 3, 4, 7, 119, 193, 195, 120, 120, 195, 2, 3.95368
124, 1, triangle, attraction, a-b-db, 5, 3, 4, 8, 120, 195, 195, 120, 117, 190, 2, 4.34891
124, 1, triangle, attraction, a-b-da, 5, 3, 4, 9, 195, 120, 120, 195, 190, 117, 1, 3.07985
124, 1, triangle, attraction, a-b-db, 5, 1, 4, 10, 58, 132, 135, 60, 60, 135, 1, 3.32071
124, 1, triangle, filler, NA, 999, 999, 4, 11, 166, 193, 76, 194, 95, 169, 1, 1.23684
124, 1, triangle, attraction, a-b-da, 5, 1, 4, 12, 132, 58, 60, 135, 135, 60, 2, 2.14779
124, 1, triangle, attraction, a-b-da, 9, 2, 4, 13, 165, 90, 157, 86, 90, 165, 1, 2.20938
124, 1, triangle, attraction, a-b-da, 14, 2, 4, 14, 165, 90, 153, 83, 90, 165, 3, 2.12516
124, 1, triangle, filler, NA, 999, 999, 4, 15, 103, 76, 67, 192, 73, 151, 2, 1.80122
124, 1, triangle, attraction, a-b-db, 14, 1, 4, 16, 135, 60, 60, 135, 56, 125, 1, 3.78591
124, 1, triangle, filler, NA, 999, 999, 4, 17, 78, 172, 117, 73, 68, 162, 1, 1.86945
124, 1, triangle, filler, NA, 999, 999, 4, 18, 169, 143, 165, 184, 161, 160, 2, 1.53363
124, 1, triangle, attraction, a-b-da, 2, 3, 4, 19, 195, 120, 193, 119, 120, 195, 1, 3.56908
124, 1, triangle, filler, NA, 999, 999, 4, 20, 99, 63, 135, 108, 66, 122, 2, 1.86212
124, 1, triangle, attraction, a-b-db, 9, 3, 4, 21, 120, 195, 114, 186, 195, 120, 1, 3.06185
124, 1, triangle, attraction, a-b-db, 14, 2, 4, 22, 83, 153, 165, 90, 90, 165, 3, 2.91737
124, 1, triangle, filler, NA, 999, 999, 4, 23, 146, 137, 140, 157, 125, 126, 1, 1.31381
124, 1, triangle, filler, NA, 999, 999, 4, 24, 118, 81, 178, 190, 157, 91, 2, 1.19957
124, 1, triangle, attraction, a-b-da, 14, 3, 4, 25, 120, 195, 181, 111, 195, 120, 1, 1.65805
124, 1, triangle, attraction, a-b-db, 5, 2, 4, 26, 88, 161, 165, 90, 90, 165, 1, 1.97798
124, 1, triangle, attraction, a-b-da, 9, 1, 4, 27, 129, 57, 60, 135, 135, 60, 1, 13.5645
124, 1, triangle, attraction, a-b-db, 2, 2, 4, 28, 90, 165, 89, 163, 165, 90, 3, 2.63787
124, 1, triangle, filler, NA, 999, 999, 4, 29, 74, 175, 121, 140, 187, 158, 3, 1.03918
124, 1, triangle, attraction, a-b-db, 9, 2, 4, 30, 86, 157, 90, 165, 165, 90, 2, 1.9518
124, 1, triangle, filler, NA, 999, 999, 4, 31, 139, 93, 178, 97, 162, 96, 2, 1.40314
124, 1, triangle, attraction, a-b-db, 14, 3, 4, 32, 111, 181, 195, 120, 120, 195, 2, 1.54058
124, 1, triangle, attraction, a-b-da, 2, 1, 4, 33, 60, 135, 134, 59, 135, 60, 1, 1.33014
124, 1, triangle, attraction, a-b-da, 14, 1, 4, 34, 60, 135, 125, 56, 135, 60, 1, 1.74382
