sub_n, computer_n, disp_cond, effect, set, distance, diag, block_n, trial_n, h1, w1, h2, w2, h3, w3, choice, rt 
123, 2, horizontal, practice, NA, 999, 999, 0, 1, 83, 130, 90, 71, 134, 121, 3, 3.83076
123, 2, horizontal, practice, NA, 999, 999, 0, 2, 191, 138, 123, 169, 59, 81, 1, 3.52621
123, 2, horizontal, practice, NA, 999, 999, 0, 3, 87, 65, 87, 90, 156, 184, 3, 1.77287
123, 2, horizontal, attraction, a-b-da, 2, 3, 1, 1, 193, 119, 195, 120, 120, 195, 3, 8.20279
123, 2, horizontal, filler, NA, 999, 999, 1, 2, 79, 70, 135, 176, 134, 111, 2, 2.25925
123, 2, horizontal, filler, NA, 999, 999, 1, 3, 165, 72, 57, 193, 192, 156, 3, 3.37905
123, 2, horizontal, attraction, a-b-da, 2, 1, 1, 4, 60, 135, 134, 59, 135, 60, 1, 6.83655
123, 2, horizontal, attraction, a-b-db, 2, 3, 1, 5, 195, 120, 120, 195, 119, 193, 1, 3.57283
123, 2, horizontal, attraction, a-b-da, 9, 1, 1, 6, 135, 60, 60, 135, 129, 57, 1, 6.30973
123, 2, horizontal, filler, NA, 999, 999, 1, 7, 106, 193, 78, 151, 145, 195, 3, 2.66047
123, 2, horizontal, attraction, a-b-db, 5, 3, 1, 8, 117, 190, 195, 120, 120, 195, 2, 9.96324
123, 2, horizontal, attraction, a-b-da, 14, 1, 1, 9, 135, 60, 125, 56, 60, 135, 3, 7.01264
123, 2, horizontal, filler, NA, 999, 999, 1, 10, 74, 173, 191, 179, 190, 73, 2, 3.00599
123, 2, horizontal, attraction, a-b-da, 5, 2, 1, 11, 161, 88, 90, 165, 165, 90, 1, 8.03261
123, 2, horizontal, attraction, a-b-db, 9, 1, 1, 12, 60, 135, 135, 60, 57, 129, 1, 6.26898
123, 2, horizontal, filler, NA, 999, 999, 1, 13, 140, 83, 148, 109, 167, 120, 3, 1.82037
123, 2, horizontal, filler, NA, 999, 999, 1, 14, 91, 146, 105, 91, 128, 138, 3, 4.09535
123, 2, horizontal, attraction, a-b-da, 9, 2, 1, 15, 165, 90, 90, 165, 157, 86, 1, 4.73969
123, 2, horizontal, filler, NA, 999, 999, 1, 16, 170, 182, 194, 56, 177, 163, 1, 7.15936
123, 2, horizontal, attraction, a-b-da, 2, 2, 1, 17, 163, 89, 165, 90, 90, 165, 1, 7.50759
123, 2, horizontal, attraction, a-b-db, 14, 2, 1, 18, 90, 165, 165, 90, 83, 153, 1, 8.91941
123, 2, horizontal, attraction, a-b-db, 2, 1, 1, 19, 135, 60, 60, 135, 59, 134, 1, 6.36781
123, 2, horizontal, attraction, a-b-db, 5, 2, 1, 20, 90, 165, 165, 90, 88, 161, 2, 4.42011
123, 2, horizontal, attraction, a-b-db, 9, 3, 1, 21, 195, 120, 114, 186, 120, 195, 1, 3.30038
123, 2, horizontal, attraction, a-b-da, 5, 3, 1, 22, 120, 195, 195, 120, 190, 117, 2, 6.55276
123, 2, horizontal, attraction, a-b-db, 14, 1, 1, 23, 60, 135, 56, 125, 135, 60, 1, 2.54896
123, 2, horizontal, attraction, a-b-da, 14, 3, 1, 24, 181, 111, 120, 195, 195, 120, 2, 5.58359
123, 2, horizontal, filler, NA, 999, 999, 1, 25, 195, 167, 83, 128, 60, 155, 1, 1.51412
123, 2, horizontal, attraction, a-b-db, 14, 3, 1, 26, 111, 181, 120, 195, 195, 120, 3, 10.2469
123, 2, horizontal, filler, NA, 999, 999, 1, 27, 110, 83, 133, 146, 158, 60, 2, 2.19796
123, 2, horizontal, attraction, a-b-db, 5, 1, 1, 28, 58, 132, 135, 60, 60, 135, 2, 6.28521
123, 2, horizontal, attraction, a-b-db, 2, 2, 1, 29, 165, 90, 90, 165, 89, 163, 1, 3.67553
123, 2, horizontal, attraction, a-b-da, 9, 3, 1, 30, 195, 120, 186, 114, 120, 195, 3, 11.8432
123, 2, horizontal, filler, NA, 999, 999, 1, 31, 152, 97, 141, 59, 64, 114, 1, 1.94603
123, 2, horizontal, attraction, a-b-da, 5, 1, 1, 32, 132, 58, 60, 135, 135, 60, 2, 3.6286
123, 2, horizontal, attraction, a-b-db, 9, 2, 1, 33, 90, 165, 86, 157, 165, 90, 1, 4.04697
123, 2, horizontal, attraction, a-b-da, 14, 2, 1, 34, 153, 83, 165, 90, 90, 165, 2, 9.20772
123, 2, horizontal, attraction, a-b-db, 9, 3, 2, 1, 120, 195, 114, 186, 195, 120, 1, 3.97235
123, 2, horizontal, attraction, a-b-db, 14, 3, 2, 2, 120, 195, 111, 181, 195, 120, 3, 6.16129
123, 2, horizontal, filler, NA, 999, 999, 2, 3, 138, 172, 109, 112, 143, 73, 1, 3.46657
123, 2, horizontal, attraction, a-b-db, 2, 3, 2, 4, 195, 120, 120, 195, 119, 193, 1, 6.89907
123, 2, horizontal, filler, NA, 999, 999, 2, 5, 162, 141, 193, 167, 120, 108, 2, 1.90279
123, 2, horizontal, filler, NA, 999, 999, 2, 6, 83, 93, 175, 88, 128, 98, 2, 4.21341
123, 2, horizontal, attraction, a-b-db, 9, 2, 2, 7, 90, 165, 86, 157, 165, 90, 1, 2.21561
123, 2, horizontal, attraction, a-b-db, 2, 2, 2, 8, 89, 163, 165, 90, 90, 165, 2, 4.02983
123, 2, horizontal, attraction, a-b-db, 14, 2, 2, 9, 83, 153, 90, 165, 165, 90, 3, 5.56003
123, 2, horizontal, attraction, a-b-db, 2, 1, 2, 10, 59, 134, 60, 135, 135, 60, 3, 6.93794
123, 2, horizontal, filler, NA, 999, 999, 2, 11, 171, 120, 108, 88, 67, 114, 1, 2.18992
123, 2, horizontal, attraction, a-b-db, 14, 1, 2, 12, 60, 135, 56, 125, 135, 60, 1, 3.04047
123, 2, horizontal, attraction, a-b-da, 14, 1, 2, 13, 135, 60, 125, 56, 60, 135, 1, 4.94502
123, 2, horizontal, attraction, a-b-da, 14, 3, 2, 14, 195, 120, 120, 195, 181, 111, 2, 6.10845
123, 2, horizontal, attraction, a-b-da, 9, 2, 2, 15, 90, 165, 165, 90, 157, 86, 2, 6.18604
123, 2, horizontal, attraction, a-b-db, 5, 1, 2, 16, 60, 135, 58, 132, 135, 60, 1, 2.10064
123, 2, horizontal, attraction, a-b-da, 2, 3, 2, 17, 120, 195, 195, 120, 193, 119, 2, 7.36205
123, 2, horizontal, attraction, a-b-da, 2, 1, 2, 18, 134, 59, 60, 135, 135, 60, 2, 2.11554
123, 2, horizontal, attraction, a-b-da, 5, 1, 2, 19, 60, 135, 135, 60, 132, 58, 1, 3.35973
123, 2, horizontal, attraction, a-b-da, 5, 2, 2, 20, 90, 165, 165, 90, 161, 88, 1, 2.58001
123, 2, horizontal, filler, NA, 999, 999, 2, 21, 171, 92, 154, 118, 173, 66, 2, 1.6711
123, 2, horizontal, filler, NA, 999, 999, 2, 22, 68, 108, 77, 77, 56, 72, 1, 2.29521
123, 2, horizontal, filler, NA, 999, 999, 2, 23, 133, 195, 92, 186, 62, 101, 1, 1.61162
123, 2, horizontal, attraction, a-b-db, 5, 2, 2, 24, 90, 165, 88, 161, 165, 90, 3, 3.77538
123, 2, horizontal, attraction, a-b-da, 2, 2, 2, 25, 165, 90, 90, 165, 163, 89, 2, 4.31426
123, 2, horizontal, attraction, a-b-db, 5, 3, 2, 26, 117, 190, 195, 120, 120, 195, 2, 4.38938
123, 2, horizontal, filler, NA, 999, 999, 2, 27, 117, 99, 58, 169, 175, 125, 3, 1.80115
123, 2, horizontal, attraction, a-b-da, 9, 1, 2, 28, 60, 135, 129, 57, 135, 60, 1, 4.17902
123, 2, horizontal, filler, NA, 999, 999, 2, 29, 68, 81, 154, 159, 83, 87, 2, 1.55919
123, 2, horizontal, filler, NA, 999, 999, 2, 30, 86, 123, 155, 160, 194, 151, 3, 4.09846
123, 2, horizontal, attraction, a-b-db, 9, 1, 2, 31, 57, 129, 135, 60, 60, 135, 2, 3.6475
123, 2, horizontal, attraction, a-b-da, 14, 2, 2, 32, 153, 83, 165, 90, 90, 165, 2, 11.8554
123, 2, horizontal, attraction, a-b-da, 5, 3, 2, 33, 195, 120, 190, 117, 120, 195, 3, 6.9812
123, 2, horizontal, attraction, a-b-da, 9, 3, 2, 34, 186, 114, 120, 195, 195, 120, 2, 4.51734
123, 2, horizontal, filler, NA, 999, 999, 3, 1, 140, 133, 62, 158, 90, 65, 1, 3.44247
123, 2, horizontal, attraction, a-b-db, 5, 2, 3, 2, 165, 90, 90, 165, 88, 161, 1, 3.82509
123, 2, horizontal, attraction, a-b-db, 2, 3, 3, 3, 119, 193, 195, 120, 120, 195, 2, 5.07553
123, 2, horizontal, attraction, a-b-da, 2, 2, 3, 4, 163, 89, 90, 165, 165, 90, 2, 2.89827
123, 2, horizontal, attraction, a-b-da, 14, 2, 3, 5, 153, 83, 165, 90, 90, 165, 2, 6.03865
123, 2, horizontal, filler, NA, 999, 999, 3, 6, 150, 58, 178, 168, 56, 129, 2, 1.22462
123, 2, horizontal, filler, NA, 999, 999, 3, 7, 85, 99, 80, 133, 174, 190, 3, 1.14559
123, 2, horizontal, filler, NA, 999, 999, 3, 8, 150, 135, 75, 119, 144, 157, 3, 3.84649
123, 2, horizontal, attraction, a-b-da, 5, 1, 3, 9, 60, 135, 132, 58, 135, 60, 1, 3.80752
123, 2, horizontal, attraction, a-b-da, 2, 3, 3, 10, 193, 119, 120, 195, 195, 120, 2, 5.27932
123, 2, horizontal, attraction, a-b-da, 14, 3, 3, 11, 181, 111, 120, 195, 195, 120, 2, 3.48626
123, 2, horizontal, attraction, a-b-db, 14, 1, 3, 12, 60, 135, 135, 60, 56, 125, 2, 4.39566
123, 2, horizontal, attraction, a-b-da, 9, 1, 3, 13, 129, 57, 135, 60, 60, 135, 3, 6.64394
123, 2, horizontal, filler, NA, 999, 999, 3, 14, 125, 73, 69, 83, 71, 155, 3, 1.91619
123, 2, horizontal, filler, NA, 999, 999, 3, 15, 66, 92, 80, 183, 193, 103, 3, 1.7624
123, 2, horizontal, attraction, a-b-da, 9, 2, 3, 16, 90, 165, 165, 90, 157, 86, 1, 2.25516
123, 2, horizontal, attraction, a-b-db, 9, 3, 3, 17, 120, 195, 195, 120, 114, 186, 2, 6.00641
123, 2, horizontal, attraction, a-b-db, 14, 3, 3, 18, 195, 120, 120, 195, 111, 181, 1, 3.7339
123, 2, horizontal, filler, NA, 999, 999, 3, 19, 183, 106, 163, 148, 58, 177, 2, 1.61267
123, 2, horizontal, attraction, a-b-db, 9, 1, 3, 20, 60, 135, 135, 60, 57, 129, 2, 1.8594
123, 2, horizontal, attraction, a-b-da, 5, 3, 3, 21, 190, 117, 195, 120, 120, 195, 3, 2.63025
123, 2, horizontal, filler, NA, 999, 999, 3, 22, 184, 117, 104, 163, 99, 177, 1, 1.91185
123, 2, horizontal, filler, NA, 999, 999, 3, 23, 170, 108, 142, 117, 149, 148, 3, 1.29922
123, 2, horizontal, attraction, a-b-db, 2, 2, 3, 24, 165, 90, 89, 163, 90, 165, 1, 5.17847
123, 2, horizontal, attraction, a-b-da, 2, 1, 3, 25, 60, 135, 135, 60, 134, 59, 1, 2.04483
123, 2, horizontal, attraction, a-b-db, 2, 1, 3, 26, 135, 60, 60, 135, 59, 134, 1, 1.86247
123, 2, horizontal, attraction, a-b-db, 9, 2, 3, 27, 90, 165, 165, 90, 86, 157, 2, 2.1501
123, 2, horizontal, filler, NA, 999, 999, 3, 28, 125, 178, 174, 106, 187, 144, 3, 5.6645
123, 2, horizontal, attraction, a-b-da, 14, 1, 3, 29, 135, 60, 60, 135, 125, 56, 2, 4.32254
123, 2, horizontal, attraction, a-b-da, 5, 2, 3, 30, 165, 90, 161, 88, 90, 165, 3, 3.42955
123, 2, horizontal, attraction, a-b-db, 5, 3, 3, 31, 195, 120, 117, 190, 120, 195, 1, 4.78215
123, 2, horizontal, attraction, a-b-da, 9, 3, 3, 32, 186, 114, 195, 120, 120, 195, 2, 6.83271
123, 2, horizontal, attraction, a-b-db, 14, 2, 3, 33, 165, 90, 90, 165, 83, 153, 1, 4.51176
123, 2, horizontal, attraction, a-b-db, 5, 1, 3, 34, 135, 60, 60, 135, 58, 132, 1, 4.6993
123, 2, horizontal, filler, NA, 999, 999, 4, 1, 170, 88, 171, 132, 70, 89, 2, 1.56182
123, 2, horizontal, filler, NA, 999, 999, 4, 2, 167, 159, 116, 192, 132, 131, 1, 4.74982
123, 2, horizontal, attraction, a-b-da, 2, 2, 4, 3, 90, 165, 163, 89, 165, 90, 1, 2.46548
123, 2, horizontal, filler, NA, 999, 999, 4, 4, 109, 76, 139, 132, 59, 174, 2, 2.43167
123, 2, horizontal, filler, NA, 999, 999, 4, 5, 125, 66, 84, 143, 173, 102, 3, 1.82653
123, 2, horizontal, attraction, a-b-db, 5, 2, 4, 6, 165, 90, 88, 161, 90, 165, 1, 2.58553
123, 2, horizontal, attraction, a-b-da, 14, 1, 4, 7, 135, 60, 60, 135, 125, 56, 2, 2.86731
123, 2, horizontal, attraction, a-b-db, 5, 1, 4, 8, 58, 132, 135, 60, 60, 135, 2, 2.26109
123, 2, horizontal, attraction, a-b-db, 14, 1, 4, 9, 60, 135, 56, 125, 135, 60, 1, 2.72397
123, 2, horizontal, filler, NA, 999, 999, 4, 10, 72, 173, 133, 116, 184, 59, 2, 2.76106
123, 2, horizontal, attraction, a-b-da, 14, 3, 4, 11, 181, 111, 120, 195, 195, 120, 2, 5.24484
123, 2, horizontal, attraction, a-b-db, 9, 3, 4, 12, 195, 120, 114, 186, 120, 195, 1, 3.07783
123, 2, horizontal, attraction, a-b-db, 2, 2, 4, 13, 89, 163, 90, 165, 165, 90, 3, 1.99456
123, 2, horizontal, attraction, a-b-da, 5, 1, 4, 14, 60, 135, 135, 60, 132, 58, 1, 2.58116
123, 2, horizontal, attraction, a-b-db, 9, 1, 4, 15, 135, 60, 57, 129, 60, 135, 1, 2.53714
123, 2, horizontal, filler, NA, 999, 999, 4, 16, 58, 56, 106, 118, 102, 117, 2, 5.3264
123, 2, horizontal, attraction, a-b-db, 9, 2, 4, 17, 86, 157, 165, 90, 90, 165, 2, 3.65906
123, 2, horizontal, attraction, a-b-db, 5, 3, 4, 18, 195, 120, 120, 195, 117, 190, 1, 6.68063
123, 2, horizontal, attraction, a-b-da, 5, 3, 4, 19, 190, 117, 120, 195, 195, 120, 2, 2.55018
123, 2, horizontal, attraction, a-b-da, 14, 2, 4, 20, 153, 83, 90, 165, 165, 90, 2, 2.8748
123, 2, horizontal, attraction, a-b-da, 9, 3, 4, 21, 186, 114, 195, 120, 120, 195, 2, 4.36892
123, 2, horizontal, filler, NA, 999, 999, 4, 22, 149, 194, 170, 174, 103, 181, 2, 3.71605
123, 2, horizontal, filler, NA, 999, 999, 4, 23, 123, 160, 175, 58, 84, 113, 1, 2.55315
123, 2, horizontal, attraction, a-b-da, 9, 2, 4, 24, 157, 86, 90, 165, 165, 90, 2, 3.34052
123, 2, horizontal, filler, NA, 999, 999, 4, 25, 125, 138, 85, 140, 121, 181, 3, 5.62559
123, 2, horizontal, attraction, a-b-da, 2, 3, 4, 26, 120, 195, 193, 119, 195, 120, 1, 2.37683
123, 2, horizontal, attraction, a-b-da, 5, 2, 4, 27, 90, 165, 165, 90, 161, 88, 1, 2.82054
123, 2, horizontal, attraction, a-b-db, 14, 2, 4, 28, 90, 165, 165, 90, 83, 153, 1, 2.13238
123, 2, horizontal, attraction, a-b-da, 9, 1, 4, 29, 129, 57, 60, 135, 135, 60, 2, 1.85055
123, 2, horizontal, attraction, a-b-db, 2, 3, 4, 30, 120, 195, 195, 120, 119, 193, 1, 1.7552
123, 2, horizontal, attraction, a-b-db, 14, 3, 4, 31, 195, 120, 120, 195, 111, 181, 2, 1.92759
123, 2, horizontal, attraction, a-b-db, 2, 1, 4, 32, 135, 60, 59, 134, 60, 135, 3, 1.90767
123, 2, horizontal, filler, NA, 999, 999, 4, 33, 111, 145, 56, 190, 60, 99, 1, 1.61754
123, 2, horizontal, attraction, a-b-da, 2, 1, 4, 34, 134, 59, 135, 60, 60, 135, 3, 2.52972
