sub_n, computer_n, disp_cond, effect, set, distance, diag, block_n, trial_n, h1, w1, h2, w2, h3, w3, choice, rt 
409, 3, horizontal, practice, NA, 999, 999, 0, 1, 87, 161, 64, 180, 113, 156, 3, 2.89904
409, 3, horizontal, practice, NA, 999, 999, 0, 2, 113, 173, 150, 148, 71, 125, 2, 4.58476
409, 3, horizontal, practice, NA, 999, 999, 0, 3, 70, 76, 154, 114, 105, 106, 2, 2.75332
409, 3, horizontal, attraction, a-b-da, 5, 3, 1, 1, 120, 195, 195, 120, 190, 117, 2, 8.61356
409, 3, horizontal, attraction, a-b-db, 9, 2, 1, 2, 90, 165, 86, 157, 165, 90, 1, 7.38017
409, 3, horizontal, attraction, a-b-da, 14, 3, 1, 3, 181, 111, 195, 120, 120, 195, 2, 2.18953
409, 3, horizontal, filler, NA, 999, 999, 1, 4, 83, 87, 146, 175, 174, 154, 3, 3.34431
409, 3, horizontal, filler, NA, 999, 999, 1, 5, 180, 185, 106, 149, 117, 174, 1, 2.24496
409, 3, horizontal, attraction, a-b-db, 9, 3, 1, 6, 195, 120, 114, 186, 120, 195, 1, 8.62009
409, 3, horizontal, attraction, a-b-db, 5, 3, 1, 7, 195, 120, 120, 195, 117, 190, 2, 4.96457
409, 3, horizontal, attraction, a-b-db, 14, 2, 1, 8, 83, 153, 90, 165, 165, 90, 3, 3.62275
409, 3, horizontal, attraction, a-b-da, 9, 2, 1, 9, 90, 165, 165, 90, 157, 86, 2, 22.9596
409, 3, horizontal, attraction, a-b-da, 5, 2, 1, 10, 165, 90, 161, 88, 90, 165, 1, 4.67678
409, 3, horizontal, filler, NA, 999, 999, 1, 11, 108, 144, 59, 118, 59, 164, 1, 3.38044
409, 3, horizontal, filler, NA, 999, 999, 1, 12, 163, 62, 151, 114, 121, 139, 3, 7.24635
409, 3, horizontal, filler, NA, 999, 999, 1, 13, 153, 160, 67, 130, 88, 182, 1, 1.76686
409, 3, horizontal, attraction, a-b-da, 9, 1, 1, 14, 60, 135, 135, 60, 129, 57, 2, 11.9127
409, 3, horizontal, attraction, a-b-da, 2, 1, 1, 15, 135, 60, 134, 59, 60, 135, 3, 2.02106
409, 3, horizontal, attraction, a-b-db, 14, 3, 1, 16, 195, 120, 120, 195, 111, 181, 2, 5.8475
409, 3, horizontal, attraction, a-b-db, 2, 1, 1, 17, 60, 135, 59, 134, 135, 60, 3, 6.35719
409, 3, horizontal, attraction, a-b-da, 2, 3, 1, 18, 195, 120, 193, 119, 120, 195, 3, 9.40695
409, 3, horizontal, attraction, a-b-db, 2, 3, 1, 19, 119, 193, 195, 120, 120, 195, 2, 6.88667
409, 3, horizontal, attraction, a-b-db, 5, 2, 1, 20, 165, 90, 90, 165, 88, 161, 1, 5.5407
409, 3, horizontal, attraction, a-b-db, 5, 1, 1, 21, 60, 135, 58, 132, 135, 60, 3, 4.37627
409, 3, horizontal, attraction, a-b-db, 9, 1, 1, 22, 60, 135, 57, 129, 135, 60, 1, 2.92303
409, 3, horizontal, attraction, a-b-da, 14, 2, 1, 23, 165, 90, 90, 165, 153, 83, 1, 6.00001
409, 3, horizontal, attraction, a-b-db, 2, 2, 1, 24, 89, 163, 165, 90, 90, 165, 3, 4.2727
409, 3, horizontal, attraction, a-b-da, 9, 3, 1, 25, 120, 195, 195, 120, 186, 114, 1, 2.92127
409, 3, horizontal, filler, NA, 999, 999, 1, 26, 78, 116, 111, 168, 92, 91, 2, 1.84449
409, 3, horizontal, filler, NA, 999, 999, 1, 27, 73, 151, 114, 147, 114, 176, 3, 2.44688
409, 3, horizontal, attraction, a-b-da, 5, 1, 1, 28, 60, 135, 132, 58, 135, 60, 3, 5.25364
409, 3, horizontal, attraction, a-b-da, 14, 1, 1, 29, 135, 60, 125, 56, 60, 135, 1, 2.82007
409, 3, horizontal, filler, NA, 999, 999, 1, 30, 126, 164, 144, 70, 135, 157, 1, 3.65966
409, 3, horizontal, attraction, a-b-da, 2, 2, 1, 31, 90, 165, 165, 90, 163, 89, 3, 2.42204
409, 3, horizontal, attraction, a-b-db, 14, 1, 1, 32, 56, 125, 60, 135, 135, 60, 2, 2.2065
409, 3, horizontal, filler, NA, 999, 999, 1, 33, 131, 150, 149, 76, 166, 101, 1, 1.85704
409, 3, horizontal, filler, NA, 999, 999, 1, 34, 73, 156, 131, 75, 105, 158, 3, 2.76804
409, 3, horizontal, attraction, a-b-db, 9, 1, 2, 1, 60, 135, 57, 129, 135, 60, 3, 7.44983
409, 3, horizontal, attraction, a-b-da, 14, 1, 2, 2, 135, 60, 60, 135, 125, 56, 1, 3.79177
409, 3, horizontal, attraction, a-b-db, 5, 2, 2, 3, 165, 90, 88, 161, 90, 165, 1, 2.22591
409, 3, horizontal, attraction, a-b-db, 2, 1, 2, 4, 135, 60, 59, 134, 60, 135, 2, 5.74028
409, 3, horizontal, attraction, a-b-da, 2, 1, 2, 5, 134, 59, 60, 135, 135, 60, 1, 2.31959
409, 3, horizontal, filler, NA, 999, 999, 2, 6, 189, 179, 58, 165, 133, 99, 1, 1.4298
409, 3, horizontal, attraction, a-b-da, 2, 2, 2, 7, 163, 89, 90, 165, 165, 90, 2, 2.58342
409, 3, horizontal, filler, NA, 999, 999, 2, 8, 158, 124, 95, 119, 157, 139, 3, 2.27196
409, 3, horizontal, filler, NA, 999, 999, 2, 9, 82, 60, 62, 83, 165, 70, 3, 3.63189
409, 3, horizontal, attraction, a-b-da, 5, 3, 2, 10, 195, 120, 190, 117, 120, 195, 3, 2.72868
409, 3, horizontal, filler, NA, 999, 999, 2, 11, 84, 156, 166, 194, 87, 126, 2, 1.36748
409, 3, horizontal, attraction, a-b-da, 5, 2, 2, 12, 161, 88, 165, 90, 90, 165, 3, 4.84183
409, 3, horizontal, attraction, a-b-da, 9, 2, 2, 13, 165, 90, 157, 86, 90, 165, 1, 1.51264
409, 3, horizontal, filler, NA, 999, 999, 2, 14, 56, 171, 73, 175, 77, 167, 3, 4.88135
409, 3, horizontal, attraction, a-b-db, 9, 3, 2, 15, 114, 186, 195, 120, 120, 195, 2, 1.59159
409, 3, horizontal, attraction, a-b-db, 9, 2, 2, 16, 86, 157, 165, 90, 90, 165, 3, 3.55131
409, 3, horizontal, filler, NA, 999, 999, 2, 17, 140, 87, 138, 72, 86, 97, 1, 5.32668
409, 3, horizontal, attraction, a-b-db, 14, 1, 2, 18, 60, 135, 135, 60, 56, 125, 2, 2.76088
409, 3, horizontal, filler, NA, 999, 999, 2, 19, 127, 154, 191, 163, 116, 92, 2, 1.83024
409, 3, horizontal, filler, NA, 999, 999, 2, 20, 181, 92, 140, 91, 126, 155, 3, 3.55702
409, 3, horizontal, attraction, a-b-db, 2, 2, 2, 21, 165, 90, 90, 165, 89, 163, 1, 5.96919
409, 3, horizontal, attraction, a-b-db, 5, 3, 2, 22, 117, 190, 120, 195, 195, 120, 3, 2.43768
409, 3, horizontal, attraction, a-b-da, 2, 3, 2, 23, 120, 195, 195, 120, 193, 119, 1, 4.50701
409, 3, horizontal, attraction, a-b-db, 2, 3, 2, 24, 195, 120, 119, 193, 120, 195, 1, 2.36964
409, 3, horizontal, attraction, a-b-da, 14, 3, 2, 25, 181, 111, 195, 120, 120, 195, 3, 1.43693
409, 3, horizontal, attraction, a-b-db, 14, 3, 2, 26, 111, 181, 120, 195, 195, 120, 2, 3.5391
409, 3, horizontal, attraction, a-b-da, 14, 2, 2, 27, 165, 90, 153, 83, 90, 165, 1, 3.66434
409, 3, horizontal, attraction, a-b-da, 9, 1, 2, 28, 60, 135, 135, 60, 129, 57, 2, 4.00746
409, 3, horizontal, attraction, a-b-db, 5, 1, 2, 29, 58, 132, 135, 60, 60, 135, 2, 2.87359
409, 3, horizontal, attraction, a-b-db, 14, 2, 2, 30, 165, 90, 83, 153, 90, 165, 3, 7.00991
409, 3, horizontal, filler, NA, 999, 999, 2, 31, 180, 181, 86, 166, 174, 157, 1, 1.41012
409, 3, horizontal, attraction, a-b-da, 5, 1, 2, 32, 60, 135, 135, 60, 132, 58, 2, 1.64166
409, 3, horizontal, filler, NA, 999, 999, 2, 33, 153, 71, 62, 75, 143, 185, 3, 1.37186
409, 3, horizontal, attraction, a-b-da, 9, 3, 2, 34, 195, 120, 186, 114, 120, 195, 1, 1.89709
409, 3, horizontal, attraction, a-b-db, 2, 3, 3, 1, 119, 193, 120, 195, 195, 120, 3, 8.68792
409, 3, horizontal, filler, NA, 999, 999, 3, 2, 151, 65, 108, 143, 137, 137, 3, 2.72344
409, 3, horizontal, attraction, a-b-db, 2, 1, 3, 3, 60, 135, 135, 60, 59, 134, 2, 1.69889
409, 3, horizontal, attraction, a-b-da, 5, 2, 3, 4, 165, 90, 161, 88, 90, 165, 2, 2.47932
409, 3, horizontal, attraction, a-b-da, 14, 1, 3, 5, 125, 56, 60, 135, 135, 60, 2, 2.75236
409, 3, horizontal, attraction, a-b-da, 2, 2, 3, 6, 163, 89, 90, 165, 165, 90, 2, 1.27303
409, 3, horizontal, filler, NA, 999, 999, 3, 7, 130, 80, 188, 151, 145, 111, 2, 1.30492
409, 3, horizontal, attraction, a-b-da, 2, 1, 3, 8, 134, 59, 60, 135, 135, 60, 3, 3.79861
409, 3, horizontal, filler, NA, 999, 999, 3, 9, 92, 99, 95, 145, 79, 121, 2, 2.07297
409, 3, horizontal, attraction, a-b-db, 5, 2, 3, 10, 88, 161, 90, 165, 165, 90, 3, 7.20761
409, 3, horizontal, attraction, a-b-db, 9, 2, 3, 11, 90, 165, 165, 90, 86, 157, 2, 1.87398
409, 3, horizontal, attraction, a-b-da, 14, 2, 3, 12, 165, 90, 90, 165, 153, 83, 1, 3.38287
409, 3, horizontal, attraction, a-b-db, 9, 1, 3, 13, 57, 129, 135, 60, 60, 135, 1, 3.85718
409, 3, horizontal, attraction, a-b-db, 2, 2, 3, 14, 90, 165, 165, 90, 89, 163, 2, 3.97005
409, 3, horizontal, filler, NA, 999, 999, 3, 15, 121, 116, 66, 100, 169, 78, 1, 4.7423
409, 3, horizontal, attraction, a-b-db, 9, 3, 3, 16, 120, 195, 195, 120, 114, 186, 2, 2.2256
409, 3, horizontal, filler, NA, 999, 999, 3, 17, 193, 144, 138, 182, 64, 181, 1, 1.62592
409, 3, horizontal, attraction, a-b-da, 9, 3, 3, 18, 186, 114, 195, 120, 120, 195, 2, 2.04902
409, 3, horizontal, attraction, a-b-db, 14, 1, 3, 19, 56, 125, 60, 135, 135, 60, 3, 2.05871
409, 3, horizontal, attraction, a-b-da, 14, 3, 3, 20, 181, 111, 120, 195, 195, 120, 3, 2.01857
409, 3, horizontal, filler, NA, 999, 999, 3, 21, 177, 176, 69, 151, 88, 81, 1, 1.52349
409, 3, horizontal, attraction, a-b-da, 5, 3, 3, 22, 190, 117, 195, 120, 120, 195, 2, 2.01671
409, 3, horizontal, filler, NA, 999, 999, 3, 23, 169, 151, 73, 122, 84, 152, 1, 1.55592
409, 3, horizontal, filler, NA, 999, 999, 3, 24, 107, 66, 100, 143, 143, 172, 3, 2.25402
409, 3, horizontal, filler, NA, 999, 999, 3, 25, 91, 103, 112, 138, 167, 143, 3, 1.63216
409, 3, horizontal, attraction, a-b-db, 14, 3, 3, 26, 195, 120, 111, 181, 120, 195, 3, 2.71983
409, 3, horizontal, attraction, a-b-da, 2, 3, 3, 27, 120, 195, 193, 119, 195, 120, 2, 2.261
409, 3, horizontal, attraction, a-b-db, 5, 3, 3, 28, 117, 190, 120, 195, 195, 120, 3, 4.94172
409, 3, horizontal, attraction, a-b-db, 5, 1, 3, 29, 60, 135, 135, 60, 58, 132, 3, 5.91219
409, 3, horizontal, attraction, a-b-db, 14, 2, 3, 30, 90, 165, 165, 90, 83, 153, 1, 1.99075
409, 3, horizontal, attraction, a-b-da, 5, 1, 3, 31, 135, 60, 60, 135, 132, 58, 1, 4.51191
409, 3, horizontal, attraction, a-b-da, 9, 1, 3, 32, 135, 60, 129, 57, 60, 135, 2, 2.91705
409, 3, horizontal, attraction, a-b-da, 9, 2, 3, 33, 157, 86, 165, 90, 90, 165, 2, 1.96322
409, 3, horizontal, filler, NA, 999, 999, 3, 34, 56, 187, 113, 133, 111, 181, 3, 3.09518
409, 3, horizontal, attraction, a-b-da, 9, 3, 4, 1, 120, 195, 186, 114, 195, 120, 3, 2.13236
409, 3, horizontal, filler, NA, 999, 999, 4, 2, 66, 157, 98, 189, 83, 135, 2, 3.95949
409, 3, horizontal, attraction, a-b-db, 14, 2, 4, 3, 90, 165, 165, 90, 83, 153, 2, 5.30117
409, 3, horizontal, filler, NA, 999, 999, 4, 4, 102, 157, 56, 91, 76, 75, 1, 1.20151
409, 3, horizontal, attraction, a-b-da, 5, 1, 4, 5, 132, 58, 60, 135, 135, 60, 2, 3.77953
409, 3, horizontal, attraction, a-b-db, 5, 2, 4, 6, 88, 161, 165, 90, 90, 165, 2, 2.74824
409, 3, horizontal, attraction, a-b-db, 2, 1, 4, 7, 60, 135, 59, 134, 135, 60, 3, 8.60893
409, 3, horizontal, attraction, a-b-db, 9, 2, 4, 8, 90, 165, 86, 157, 165, 90, 3, 6.68206
409, 3, horizontal, filler, NA, 999, 999, 4, 9, 147, 73, 158, 193, 165, 73, 2, 1.19433
409, 3, horizontal, attraction, a-b-db, 5, 3, 4, 10, 120, 195, 195, 120, 117, 190, 2, 5.27624
409, 3, horizontal, filler, NA, 999, 999, 4, 11, 176, 185, 168, 193, 101, 85, 1, 1.32299
409, 3, horizontal, attraction, a-b-db, 14, 1, 4, 12, 60, 135, 56, 125, 135, 60, 3, 1.60724
409, 3, horizontal, attraction, a-b-da, 14, 2, 4, 13, 90, 165, 153, 83, 165, 90, 3, 1.83405
409, 3, horizontal, attraction, a-b-da, 14, 1, 4, 14, 125, 56, 135, 60, 60, 135, 3, 1.27505
409, 3, horizontal, attraction, a-b-da, 14, 3, 4, 15, 195, 120, 181, 111, 120, 195, 1, 1.67583
409, 3, horizontal, attraction, a-b-db, 14, 3, 4, 16, 195, 120, 120, 195, 111, 181, 2, 3.98542
409, 3, horizontal, filler, NA, 999, 999, 4, 17, 82, 182, 192, 120, 64, 174, 2, 1.32228
409, 3, horizontal, attraction, a-b-da, 5, 2, 4, 18, 90, 165, 161, 88, 165, 90, 3, 2.70429
409, 3, horizontal, filler, NA, 999, 999, 4, 19, 87, 78, 93, 76, 90, 125, 3, 1.846
409, 3, horizontal, attraction, a-b-da, 5, 3, 4, 20, 120, 195, 190, 117, 195, 120, 2, 2.31211
409, 3, horizontal, attraction, a-b-da, 9, 2, 4, 21, 157, 86, 90, 165, 165, 90, 2, 2.12567
409, 3, horizontal, attraction, a-b-da, 2, 3, 4, 22, 193, 119, 120, 195, 195, 120, 3, 1.56262
409, 3, horizontal, attraction, a-b-da, 9, 1, 4, 23, 60, 135, 129, 57, 135, 60, 3, 2.52062
409, 3, horizontal, filler, NA, 999, 999, 4, 24, 101, 176, 166, 184, 144, 191, 2, 1.95746
409, 3, horizontal, attraction, a-b-db, 9, 1, 4, 25, 60, 135, 135, 60, 57, 129, 2, 3.73678
409, 3, horizontal, attraction, a-b-da, 2, 2, 4, 26, 165, 90, 163, 89, 90, 165, 3, 1.46725
409, 3, horizontal, attraction, a-b-db, 9, 3, 4, 27, 114, 186, 195, 120, 120, 195, 3, 1.97222
409, 3, horizontal, filler, NA, 999, 999, 4, 28, 160, 183, 160, 90, 89, 86, 1, 1.54914
409, 3, horizontal, filler, NA, 999, 999, 4, 29, 72, 138, 165, 139, 172, 114, 3, 3.06803
409, 3, horizontal, attraction, a-b-db, 2, 3, 4, 30, 120, 195, 119, 193, 195, 120, 3, 7.26636
409, 3, horizontal, attraction, a-b-da, 2, 1, 4, 31, 135, 60, 134, 59, 60, 135, 3, 14.0549
409, 3, horizontal, attraction, a-b-db, 5, 1, 4, 32, 58, 132, 135, 60, 60, 135, 2, 3.92425
409, 3, horizontal, attraction, a-b-db, 2, 2, 4, 33, 165, 90, 90, 165, 89, 163, 3, 5.3048
409, 3, horizontal, filler, NA, 999, 999, 4, 34, 173, 76, 129, 131, 187, 192, 3, 1.40715
