sub_n, computer_n, disp_cond, effect, set, distance, diag, block_n, trial_n, h1, w1, h2, w2, h3, w3, choice, rt 
384, 2, triangle, practice, NA, 999, 999, 0, 1, 182, 108, 125, 101, 187, 184, 3, 2.95184
384, 2, triangle, practice, NA, 999, 999, 0, 2, 187, 179, 78, 100, 154, 186, 1, 1.97894
384, 2, triangle, practice, NA, 999, 999, 0, 3, 162, 186, 170, 173, 115, 91, 2, 1.70307
384, 2, triangle, attraction, a-b-da, 2, 2, 1, 1, 163, 89, 90, 165, 165, 90, 2, 2.54572
384, 2, triangle, attraction, a-b-da, 5, 3, 1, 2, 195, 120, 120, 195, 190, 117, 2, 2.3597
384, 2, triangle, filler, NA, 999, 999, 1, 3, 63, 128, 79, 175, 144, 121, 2, 3.69811
384, 2, triangle, attraction, a-b-da, 14, 1, 1, 4, 125, 56, 60, 135, 135, 60, 2, 3.38418
384, 2, triangle, attraction, a-b-db, 9, 3, 1, 5, 195, 120, 114, 186, 120, 195, 3, 2.21018
384, 2, triangle, attraction, a-b-db, 5, 3, 1, 6, 117, 190, 195, 120, 120, 195, 3, 2.06779
384, 2, triangle, attraction, a-b-da, 2, 3, 1, 7, 193, 119, 195, 120, 120, 195, 3, 3.3397
384, 2, triangle, attraction, a-b-da, 9, 3, 1, 8, 186, 114, 195, 120, 120, 195, 2, 2.82237
384, 2, triangle, filler, NA, 999, 999, 1, 9, 144, 100, 166, 130, 155, 190, 3, 1.88243
384, 2, triangle, attraction, a-b-db, 5, 1, 1, 10, 135, 60, 60, 135, 58, 132, 1, 2.44723
384, 2, triangle, filler, NA, 999, 999, 1, 11, 135, 72, 144, 135, 107, 147, 2, 1.46374
384, 2, triangle, filler, NA, 999, 999, 1, 12, 151, 75, 143, 131, 124, 176, 3, 2.41498
384, 2, triangle, attraction, a-b-db, 14, 2, 1, 13, 90, 165, 83, 153, 165, 90, 3, 3.00991
384, 2, triangle, attraction, a-b-db, 2, 1, 1, 14, 60, 135, 59, 134, 135, 60, 3, 3.17984
384, 2, triangle, attraction, a-b-da, 14, 3, 1, 15, 181, 111, 120, 195, 195, 120, 2, 2.98899
384, 2, triangle, filler, NA, 999, 999, 1, 16, 190, 147, 146, 66, 70, 134, 1, 1.56893
384, 2, triangle, attraction, a-b-da, 5, 1, 1, 17, 132, 58, 135, 60, 60, 135, 2, 4.72458
384, 2, triangle, attraction, a-b-db, 14, 3, 1, 18, 111, 181, 195, 120, 120, 195, 3, 3.93452
384, 2, triangle, attraction, a-b-da, 14, 2, 1, 19, 90, 165, 153, 83, 165, 90, 1, 4.60316
384, 2, triangle, filler, NA, 999, 999, 1, 20, 192, 181, 104, 123, 86, 128, 1, 1.774
384, 2, triangle, attraction, a-b-db, 9, 2, 1, 21, 90, 165, 86, 157, 165, 90, 2, 2.04782
384, 2, triangle, attraction, a-b-db, 14, 1, 1, 22, 56, 125, 60, 135, 135, 60, 3, 1.74544
384, 2, triangle, attraction, a-b-db, 2, 2, 1, 23, 165, 90, 90, 165, 89, 163, 2, 4.01399
384, 2, triangle, filler, NA, 999, 999, 1, 24, 67, 59, 183, 158, 80, 192, 2, 1.55171
384, 2, triangle, attraction, a-b-da, 9, 2, 1, 25, 165, 90, 157, 86, 90, 165, 3, 2.37693
384, 2, triangle, filler, NA, 999, 999, 1, 26, 99, 179, 175, 71, 124, 126, 1, 2.55651
384, 2, triangle, attraction, a-b-db, 2, 3, 1, 27, 119, 193, 120, 195, 195, 120, 2, 2.37668
384, 2, triangle, attraction, a-b-db, 9, 1, 1, 28, 57, 129, 60, 135, 135, 60, 3, 4.45934
384, 2, triangle, attraction, a-b-da, 2, 1, 1, 29, 135, 60, 134, 59, 60, 135, 3, 1.89992
384, 2, triangle, filler, NA, 999, 999, 1, 30, 77, 57, 91, 114, 163, 59, 2, 1.76199
384, 2, triangle, attraction, a-b-da, 5, 2, 1, 31, 165, 90, 161, 88, 90, 165, 3, 2.27132
384, 2, triangle, attraction, a-b-da, 9, 1, 1, 32, 60, 135, 135, 60, 129, 57, 1, 4.6373
384, 2, triangle, attraction, a-b-db, 5, 2, 1, 33, 90, 165, 165, 90, 88, 161, 1, 2.62278
384, 2, triangle, filler, NA, 999, 999, 1, 34, 113, 150, 159, 166, 127, 155, 2, 1.6372
384, 2, triangle, attraction, a-b-da, 14, 1, 2, 1, 125, 56, 135, 60, 60, 135, 3, 2.76873
384, 2, triangle, filler, NA, 999, 999, 2, 2, 62, 76, 101, 148, 79, 98, 2, 1.53677
384, 2, triangle, attraction, a-b-db, 2, 2, 2, 3, 90, 165, 89, 163, 165, 90, 1, 1.59104
384, 2, triangle, attraction, a-b-da, 9, 3, 2, 4, 195, 120, 186, 114, 120, 195, 2, 1.94662
384, 2, triangle, attraction, a-b-da, 14, 3, 2, 5, 181, 111, 195, 120, 120, 195, 3, 1.55875
384, 2, triangle, attraction, a-b-da, 5, 3, 2, 6, 195, 120, 190, 117, 120, 195, 3, 2.02619
384, 2, triangle, filler, NA, 999, 999, 2, 7, 153, 170, 169, 102, 103, 91, 1, 1.64305
384, 2, triangle, filler, NA, 999, 999, 2, 8, 152, 93, 90, 132, 176, 193, 3, 1.53465
384, 2, triangle, attraction, a-b-db, 14, 1, 2, 9, 135, 60, 60, 135, 56, 125, 2, 1.40968
384, 2, triangle, filler, NA, 999, 999, 2, 10, 133, 129, 182, 74, 193, 61, 1, 1.39578
384, 2, triangle, attraction, a-b-da, 2, 1, 2, 11, 135, 60, 60, 135, 134, 59, 2, 1.82247
384, 2, triangle, attraction, a-b-db, 14, 3, 2, 12, 111, 181, 195, 120, 120, 195, 3, 2.72886
384, 2, triangle, filler, NA, 999, 999, 2, 13, 154, 131, 148, 117, 184, 140, 3, 1.5328
384, 2, triangle, filler, NA, 999, 999, 2, 14, 63, 152, 124, 146, 195, 95, 2, 3.24178
384, 2, triangle, attraction, a-b-da, 5, 2, 2, 15, 90, 165, 161, 88, 165, 90, 1, 1.97972
384, 2, triangle, attraction, a-b-da, 9, 2, 2, 16, 165, 90, 90, 165, 157, 86, 2, 3.73368
384, 2, triangle, attraction, a-b-db, 2, 1, 2, 17, 59, 134, 60, 135, 135, 60, 1, 3.30564
384, 2, triangle, attraction, a-b-db, 5, 2, 2, 18, 90, 165, 88, 161, 165, 90, 1, 1.47115
384, 2, triangle, filler, NA, 999, 999, 2, 19, 63, 148, 58, 142, 85, 188, 3, 1.27149
384, 2, triangle, attraction, a-b-da, 2, 2, 2, 20, 163, 89, 90, 165, 165, 90, 2, 3.27077
384, 2, triangle, attraction, a-b-da, 5, 1, 2, 21, 132, 58, 135, 60, 60, 135, 3, 1.99073
384, 2, triangle, attraction, a-b-da, 9, 1, 2, 22, 60, 135, 135, 60, 129, 57, 1, 1.95878
384, 2, triangle, filler, NA, 999, 999, 2, 23, 165, 78, 128, 90, 156, 119, 3, 1.66038
384, 2, triangle, attraction, a-b-db, 9, 2, 2, 24, 165, 90, 86, 157, 90, 165, 1, 1.68303
384, 2, triangle, attraction, a-b-db, 5, 3, 2, 25, 117, 190, 120, 195, 195, 120, 2, 2.49749
384, 2, triangle, filler, NA, 999, 999, 2, 26, 70, 140, 93, 71, 167, 132, 3, 1.5389
384, 2, triangle, filler, NA, 999, 999, 2, 27, 79, 99, 80, 175, 185, 125, 3, 1.69462
384, 2, triangle, attraction, a-b-db, 9, 1, 2, 28, 57, 129, 60, 135, 135, 60, 3, 2.33176
384, 2, triangle, attraction, a-b-db, 5, 1, 2, 29, 58, 132, 60, 135, 135, 60, 2, 2.5929
384, 2, triangle, attraction, a-b-da, 14, 2, 2, 30, 165, 90, 153, 83, 90, 165, 1, 1.51641
384, 2, triangle, attraction, a-b-db, 14, 2, 2, 31, 90, 165, 165, 90, 83, 153, 1, 1.59364
384, 2, triangle, attraction, a-b-db, 2, 3, 2, 32, 120, 195, 195, 120, 119, 193, 1, 2.60317
384, 2, triangle, attraction, a-b-da, 2, 3, 2, 33, 120, 195, 195, 120, 193, 119, 3, 3.39013
384, 2, triangle, attraction, a-b-db, 9, 3, 2, 34, 195, 120, 120, 195, 114, 186, 2, 1.32724
384, 2, triangle, attraction, a-b-db, 2, 2, 3, 1, 165, 90, 89, 163, 90, 165, 3, 3.66772
384, 2, triangle, attraction, a-b-db, 9, 2, 3, 2, 90, 165, 165, 90, 86, 157, 1, 2.05298
384, 2, triangle, filler, NA, 999, 999, 3, 3, 150, 147, 125, 97, 56, 139, 1, 1.58891
384, 2, triangle, attraction, a-b-db, 14, 3, 3, 4, 120, 195, 111, 181, 195, 120, 3, 2.26463
384, 2, triangle, attraction, a-b-db, 2, 1, 3, 5, 59, 134, 135, 60, 60, 135, 1, 2.0466
384, 2, triangle, attraction, a-b-db, 14, 2, 3, 6, 90, 165, 165, 90, 83, 153, 1, 1.51057
384, 2, triangle, attraction, a-b-da, 5, 2, 3, 7, 165, 90, 90, 165, 161, 88, 2, 2.01322
384, 2, triangle, attraction, a-b-db, 9, 1, 3, 8, 135, 60, 60, 135, 57, 129, 2, 1.99908
384, 2, triangle, attraction, a-b-da, 9, 3, 3, 9, 186, 114, 195, 120, 120, 195, 2, 2.25651
384, 2, triangle, attraction, a-b-da, 5, 3, 3, 10, 190, 117, 120, 195, 195, 120, 2, 2.19888
384, 2, triangle, attraction, a-b-db, 2, 3, 3, 11, 119, 193, 195, 120, 120, 195, 3, 2.04235
384, 2, triangle, attraction, a-b-db, 5, 1, 3, 12, 58, 132, 135, 60, 60, 135, 3, 2.531
384, 2, triangle, attraction, a-b-da, 14, 1, 3, 13, 60, 135, 125, 56, 135, 60, 3, 3.27321
384, 2, triangle, filler, NA, 999, 999, 3, 14, 77, 86, 133, 171, 66, 81, 2, 1.70165
384, 2, triangle, attraction, a-b-da, 2, 2, 3, 15, 163, 89, 90, 165, 165, 90, 1, 2.4214
384, 2, triangle, filler, NA, 999, 999, 3, 16, 110, 75, 163, 114, 100, 100, 2, 1.54296
384, 2, triangle, attraction, a-b-da, 5, 1, 3, 17, 135, 60, 60, 135, 132, 58, 1, 1.74021
384, 2, triangle, filler, NA, 999, 999, 3, 18, 58, 126, 76, 180, 180, 122, 3, 3.72866
384, 2, triangle, attraction, a-b-db, 14, 1, 3, 19, 60, 135, 56, 125, 135, 60, 1, 1.18988
384, 2, triangle, filler, NA, 999, 999, 3, 20, 90, 140, 147, 103, 146, 57, 2, 1.44707
384, 2, triangle, filler, NA, 999, 999, 3, 21, 88, 139, 150, 147, 180, 88, 2, 1.26342
384, 2, triangle, attraction, a-b-da, 9, 1, 3, 22, 60, 135, 135, 60, 129, 57, 1, 1.99993
384, 2, triangle, filler, NA, 999, 999, 3, 23, 186, 168, 113, 137, 155, 188, 1, 1.26611
384, 2, triangle, filler, NA, 999, 999, 3, 24, 105, 69, 80, 63, 182, 95, 3, 1.52043
384, 2, triangle, filler, NA, 999, 999, 3, 25, 130, 161, 168, 144, 161, 154, 2, 1.59121
384, 2, triangle, attraction, a-b-da, 2, 3, 3, 26, 120, 195, 195, 120, 193, 119, 1, 2.22641
384, 2, triangle, attraction, a-b-db, 5, 2, 3, 27, 165, 90, 88, 161, 90, 165, 1, 2.80351
384, 2, triangle, attraction, a-b-db, 5, 3, 3, 28, 117, 190, 195, 120, 120, 195, 1, 3.91916
384, 2, triangle, attraction, a-b-da, 14, 2, 3, 29, 153, 83, 165, 90, 90, 165, 3, 1.65662
384, 2, triangle, attraction, a-b-db, 9, 3, 3, 30, 195, 120, 114, 186, 120, 195, 2, 2.51421
384, 2, triangle, attraction, a-b-da, 9, 2, 3, 31, 157, 86, 90, 165, 165, 90, 3, 3.26537
384, 2, triangle, attraction, a-b-da, 14, 3, 3, 32, 181, 111, 195, 120, 120, 195, 2, 2.13419
384, 2, triangle, attraction, a-b-da, 2, 1, 3, 33, 60, 135, 135, 60, 134, 59, 1, 2.00969
384, 2, triangle, filler, NA, 999, 999, 3, 34, 183, 165, 105, 188, 122, 69, 1, 3.83702
384, 2, triangle, filler, NA, 999, 999, 4, 1, 61, 192, 188, 148, 125, 142, 2, 1.5502
384, 2, triangle, attraction, a-b-da, 9, 1, 4, 2, 60, 135, 135, 60, 129, 57, 3, 1.60141
384, 2, triangle, attraction, a-b-da, 5, 2, 4, 3, 90, 165, 165, 90, 161, 88, 1, 3.25934
384, 2, triangle, filler, NA, 999, 999, 4, 4, 109, 63, 69, 180, 132, 84, 3, 1.46683
384, 2, triangle, attraction, a-b-db, 5, 1, 4, 5, 60, 135, 135, 60, 58, 132, 1, 1.52394
384, 2, triangle, attraction, a-b-db, 5, 3, 4, 6, 195, 120, 120, 195, 117, 190, 2, 4.57639
384, 2, triangle, attraction, a-b-da, 2, 1, 4, 7, 134, 59, 135, 60, 60, 135, 1, 1.70782
384, 2, triangle, filler, NA, 999, 999, 4, 8, 101, 115, 71, 182, 112, 83, 1, 1.76036
384, 2, triangle, attraction, a-b-db, 14, 1, 4, 9, 60, 135, 56, 125, 135, 60, 1, 2.45269
384, 2, triangle, attraction, a-b-db, 5, 2, 4, 10, 88, 161, 90, 165, 165, 90, 3, 1.32411
384, 2, triangle, attraction, a-b-da, 14, 3, 4, 11, 120, 195, 195, 120, 181, 111, 1, 1.81786
384, 2, triangle, filler, NA, 999, 999, 4, 12, 146, 83, 101, 176, 179, 180, 3, 1.19617
384, 2, triangle, attraction, a-b-da, 5, 3, 4, 13, 120, 195, 195, 120, 190, 117, 1, 1.43122
384, 2, triangle, attraction, a-b-db, 14, 3, 4, 14, 195, 120, 120, 195, 111, 181, 2, 1.52152
384, 2, triangle, filler, NA, 999, 999, 4, 15, 158, 81, 112, 89, 170, 94, 3, 1.5955
384, 2, triangle, filler, NA, 999, 999, 4, 16, 72, 129, 123, 139, 125, 191, 3, 1.47134
384, 2, triangle, attraction, a-b-da, 9, 3, 4, 17, 186, 114, 120, 195, 195, 120, 2, 1.47056
384, 2, triangle, attraction, a-b-db, 2, 1, 4, 18, 135, 60, 60, 135, 59, 134, 2, 1.99892
384, 2, triangle, attraction, a-b-db, 9, 2, 4, 19, 165, 90, 90, 165, 86, 157, 1, 1.45638
384, 2, triangle, attraction, a-b-db, 9, 3, 4, 20, 120, 195, 195, 120, 114, 186, 1, 1.30578
384, 2, triangle, attraction, a-b-db, 2, 3, 4, 21, 195, 120, 120, 195, 119, 193, 2, 1.36635
384, 2, triangle, filler, NA, 999, 999, 4, 22, 71, 154, 77, 167, 69, 82, 2, 1.97896
384, 2, triangle, attraction, a-b-da, 14, 1, 4, 23, 60, 135, 135, 60, 125, 56, 1, 1.35772
384, 2, triangle, attraction, a-b-db, 14, 2, 4, 24, 165, 90, 90, 165, 83, 153, 2, 1.96218
384, 2, triangle, attraction, a-b-db, 9, 1, 4, 25, 57, 129, 60, 135, 135, 60, 3, 1.53305
384, 2, triangle, attraction, a-b-da, 14, 2, 4, 26, 165, 90, 90, 165, 153, 83, 2, 1.49277
384, 2, triangle, attraction, a-b-da, 2, 2, 4, 27, 165, 90, 163, 89, 90, 165, 3, 1.56364
384, 2, triangle, attraction, a-b-da, 5, 1, 4, 28, 132, 58, 135, 60, 60, 135, 3, 1.72539
384, 2, triangle, attraction, a-b-da, 2, 3, 4, 29, 195, 120, 120, 195, 193, 119, 2, 1.39497
384, 2, triangle, attraction, a-b-db, 2, 2, 4, 30, 89, 163, 165, 90, 90, 165, 1, 1.21302
384, 2, triangle, filler, NA, 999, 999, 4, 31, 139, 83, 162, 124, 174, 153, 3, 1.64206
384, 2, triangle, filler, NA, 999, 999, 4, 32, 133, 76, 158, 88, 62, 174, 2, 3.44705
384, 2, triangle, filler, NA, 999, 999, 4, 33, 155, 194, 113, 139, 87, 182, 1, 1.36073
384, 2, triangle, attraction, a-b-da, 9, 2, 4, 34, 157, 86, 90, 165, 165, 90, 2, 1.31635
