sub_n, computer_n, disp_cond, effect, set, distance, diag, block_n, trial_n, h1, w1, h2, w2, h3, w3, choice, rt 
331, 3, horizontal, practice, NA, 999, 999, 0, 1, 164, 90, 180, 75, 112, 86, 1, 4.74731
331, 3, horizontal, practice, NA, 999, 999, 0, 2, 65, 175, 162, 80, 61, 176, 2, 4.61979
331, 3, horizontal, practice, NA, 999, 999, 0, 3, 166, 70, 86, 102, 193, 117, 3, 1.84676
331, 3, horizontal, filler, NA, 999, 999, 1, 1, 60, 105, 178, 89, 139, 184, 3, 2.75039
331, 3, horizontal, filler, NA, 999, 999, 1, 2, 191, 70, 146, 82, 110, 140, 3, 2.36547
331, 3, horizontal, filler, NA, 999, 999, 1, 3, 179, 84, 113, 153, 139, 162, 3, 3.32614
331, 3, horizontal, filler, NA, 999, 999, 1, 4, 176, 153, 119, 161, 75, 150, 1, 1.75457
331, 3, horizontal, attraction, a-b-da, 14, 3, 1, 5, 181, 111, 195, 120, 120, 195, 2, 1.86229
331, 3, horizontal, filler, NA, 999, 999, 1, 6, 137, 180, 64, 183, 129, 109, 1, 1.36905
331, 3, horizontal, filler, NA, 999, 999, 1, 7, 160, 76, 186, 81, 151, 161, 3, 2.95377
331, 3, horizontal, filler, NA, 999, 999, 1, 8, 187, 98, 140, 108, 193, 159, 3, 1.71176
331, 3, horizontal, attraction, a-b-da, 5, 3, 1, 9, 190, 117, 195, 120, 120, 195, 2, 4.67843
331, 3, horizontal, attraction, a-b-da, 2, 1, 1, 10, 135, 60, 60, 135, 134, 59, 2, 1.97775
331, 3, horizontal, attraction, a-b-da, 14, 2, 1, 11, 153, 83, 90, 165, 165, 90, 2, 2.32602
331, 3, horizontal, attraction, a-b-db, 2, 1, 1, 12, 135, 60, 59, 134, 60, 135, 2, 1.90667
331, 3, horizontal, attraction, a-b-da, 2, 2, 1, 13, 163, 89, 165, 90, 90, 165, 1, 2.61643
331, 3, horizontal, attraction, a-b-db, 5, 1, 1, 14, 60, 135, 135, 60, 58, 132, 3, 3.43583
331, 3, horizontal, attraction, a-b-da, 14, 1, 1, 15, 135, 60, 60, 135, 125, 56, 2, 3.27376
331, 3, horizontal, attraction, a-b-da, 5, 2, 1, 16, 90, 165, 161, 88, 165, 90, 3, 4.53831
331, 3, horizontal, attraction, a-b-db, 2, 2, 1, 17, 89, 163, 90, 165, 165, 90, 3, 2.05542
331, 3, horizontal, attraction, a-b-db, 5, 2, 1, 18, 165, 90, 88, 161, 90, 165, 1, 6.32702
331, 3, horizontal, attraction, a-b-db, 14, 3, 1, 19, 195, 120, 120, 195, 111, 181, 1, 1.86617
331, 3, horizontal, attraction, a-b-da, 9, 2, 1, 20, 157, 86, 165, 90, 90, 165, 2, 3.32168
331, 3, horizontal, attraction, a-b-da, 2, 3, 1, 21, 195, 120, 120, 195, 193, 119, 1, 4.0234
331, 3, horizontal, attraction, a-b-db, 2, 3, 1, 22, 119, 193, 120, 195, 195, 120, 3, 3.28797
331, 3, horizontal, attraction, a-b-db, 5, 3, 1, 23, 117, 190, 195, 120, 120, 195, 2, 6.58959
331, 3, horizontal, attraction, a-b-db, 9, 3, 1, 24, 195, 120, 114, 186, 120, 195, 3, 5.93617
331, 3, horizontal, attraction, a-b-db, 14, 1, 1, 25, 135, 60, 60, 135, 56, 125, 1, 3.92811
331, 3, horizontal, attraction, a-b-da, 5, 1, 1, 26, 60, 135, 132, 58, 135, 60, 2, 3.89558
331, 3, horizontal, attraction, a-b-db, 9, 2, 1, 27, 165, 90, 90, 165, 86, 157, 1, 3.86753
331, 3, horizontal, attraction, a-b-db, 9, 1, 1, 28, 60, 135, 57, 129, 135, 60, 1, 3.15406
331, 3, horizontal, filler, NA, 999, 999, 1, 29, 182, 59, 135, 174, 147, 96, 2, 1.46329
331, 3, horizontal, attraction, a-b-db, 14, 2, 1, 30, 165, 90, 83, 153, 90, 165, 1, 4.79081
331, 3, horizontal, attraction, a-b-da, 9, 1, 1, 31, 129, 57, 135, 60, 60, 135, 3, 1.92781
331, 3, horizontal, filler, NA, 999, 999, 1, 32, 92, 58, 101, 89, 107, 191, 3, 1.39005
331, 3, horizontal, attraction, a-b-da, 9, 3, 1, 33, 195, 120, 120, 195, 186, 114, 1, 3.16981
331, 3, horizontal, filler, NA, 999, 999, 1, 34, 176, 67, 176, 173, 147, 64, 2, 1.44443
331, 3, horizontal, filler, NA, 999, 999, 2, 1, 91, 172, 176, 184, 62, 189, 2, 1.9822
331, 3, horizontal, attraction, a-b-db, 2, 1, 2, 2, 60, 135, 59, 134, 135, 60, 1, 6.03019
331, 3, horizontal, attraction, a-b-da, 5, 1, 2, 3, 135, 60, 60, 135, 132, 58, 1, 6.73563
331, 3, horizontal, attraction, a-b-db, 14, 2, 2, 4, 83, 153, 90, 165, 165, 90, 2, 6.41971
331, 3, horizontal, attraction, a-b-db, 14, 1, 2, 5, 60, 135, 135, 60, 56, 125, 1, 3.44277
331, 3, horizontal, filler, NA, 999, 999, 2, 6, 186, 116, 88, 82, 194, 180, 3, 1.6365
331, 3, horizontal, attraction, a-b-da, 2, 2, 2, 7, 163, 89, 165, 90, 90, 165, 1, 4.64274
331, 3, horizontal, filler, NA, 999, 999, 2, 8, 113, 183, 98, 119, 65, 64, 1, 1.2842
331, 3, horizontal, attraction, a-b-da, 9, 2, 2, 9, 157, 86, 90, 165, 165, 90, 2, 3.49058
331, 3, horizontal, attraction, a-b-db, 2, 3, 2, 10, 120, 195, 195, 120, 119, 193, 3, 4.55922
331, 3, horizontal, attraction, a-b-da, 9, 1, 2, 11, 135, 60, 129, 57, 60, 135, 1, 4.8754
331, 3, horizontal, attraction, a-b-da, 14, 2, 2, 12, 90, 165, 165, 90, 153, 83, 2, 3.46729
331, 3, horizontal, filler, NA, 999, 999, 2, 13, 140, 153, 194, 144, 144, 131, 2, 1.3699
331, 3, horizontal, filler, NA, 999, 999, 2, 14, 151, 116, 67, 148, 116, 162, 1, 3.82853
331, 3, horizontal, attraction, a-b-da, 5, 2, 2, 15, 90, 165, 161, 88, 165, 90, 3, 3.64688
331, 3, horizontal, filler, NA, 999, 999, 2, 16, 103, 105, 147, 158, 165, 59, 2, 1.80362
331, 3, horizontal, attraction, a-b-db, 2, 2, 2, 17, 90, 165, 89, 163, 165, 90, 3, 4.37642
331, 3, horizontal, filler, NA, 999, 999, 2, 18, 124, 72, 115, 92, 97, 178, 3, 1.67444
331, 3, horizontal, attraction, a-b-da, 5, 3, 2, 19, 120, 195, 195, 120, 190, 117, 2, 2.68077
331, 3, horizontal, attraction, a-b-da, 14, 3, 2, 20, 120, 195, 195, 120, 181, 111, 2, 3.2881
331, 3, horizontal, filler, NA, 999, 999, 2, 21, 186, 98, 101, 57, 148, 73, 1, 1.71923
331, 3, horizontal, attraction, a-b-da, 9, 3, 2, 22, 120, 195, 195, 120, 186, 114, 2, 5.99561
331, 3, horizontal, attraction, a-b-da, 2, 3, 2, 23, 195, 120, 120, 195, 193, 119, 3, 5.30234
331, 3, horizontal, filler, NA, 999, 999, 2, 24, 179, 113, 116, 141, 75, 178, 1, 2.01169
331, 3, horizontal, attraction, a-b-db, 14, 3, 2, 25, 120, 195, 111, 181, 195, 120, 3, 4.18783
331, 3, horizontal, filler, NA, 999, 999, 2, 26, 152, 161, 161, 195, 99, 87, 2, 2.20664
331, 3, horizontal, attraction, a-b-da, 2, 1, 2, 27, 135, 60, 134, 59, 60, 135, 2, 3.89812
331, 3, horizontal, attraction, a-b-da, 14, 1, 2, 28, 125, 56, 60, 135, 135, 60, 2, 1.84863
331, 3, horizontal, attraction, a-b-db, 5, 2, 2, 29, 90, 165, 165, 90, 88, 161, 2, 6.62589
331, 3, horizontal, attraction, a-b-db, 9, 1, 2, 30, 57, 129, 60, 135, 135, 60, 2, 6.34401
331, 3, horizontal, attraction, a-b-db, 9, 3, 2, 31, 195, 120, 120, 195, 114, 186, 1, 2.44999
331, 3, horizontal, attraction, a-b-db, 5, 1, 2, 32, 135, 60, 60, 135, 58, 132, 1, 6.89125
331, 3, horizontal, attraction, a-b-db, 5, 3, 2, 33, 120, 195, 195, 120, 117, 190, 2, 5.02477
331, 3, horizontal, attraction, a-b-db, 9, 2, 2, 34, 165, 90, 90, 165, 86, 157, 1, 3.4064
331, 3, horizontal, filler, NA, 999, 999, 3, 1, 190, 130, 188, 107, 86, 72, 1, 1.76158
331, 3, horizontal, attraction, a-b-da, 2, 1, 3, 2, 60, 135, 134, 59, 135, 60, 2, 3.90069
331, 3, horizontal, attraction, a-b-db, 2, 3, 3, 3, 120, 195, 119, 193, 195, 120, 1, 7.98585
331, 3, horizontal, filler, NA, 999, 999, 3, 4, 100, 170, 184, 103, 110, 69, 2, 4.30858
331, 3, horizontal, attraction, a-b-da, 9, 1, 3, 5, 129, 57, 135, 60, 60, 135, 2, 2.82567
331, 3, horizontal, filler, NA, 999, 999, 3, 6, 87, 139, 94, 181, 63, 172, 2, 1.45763
331, 3, horizontal, attraction, a-b-da, 9, 2, 3, 7, 90, 165, 157, 86, 165, 90, 3, 5.63474
331, 3, horizontal, attraction, a-b-db, 9, 3, 3, 8, 195, 120, 114, 186, 120, 195, 1, 5.18454
331, 3, horizontal, attraction, a-b-db, 5, 3, 3, 9, 195, 120, 120, 195, 117, 190, 1, 4.70821
331, 3, horizontal, attraction, a-b-db, 9, 1, 3, 10, 135, 60, 60, 135, 57, 129, 1, 4.0894
331, 3, horizontal, attraction, a-b-db, 2, 2, 3, 11, 165, 90, 90, 165, 89, 163, 1, 3.47126
331, 3, horizontal, attraction, a-b-db, 9, 2, 3, 12, 90, 165, 86, 157, 165, 90, 1, 4.22796
331, 3, horizontal, attraction, a-b-da, 14, 1, 3, 13, 60, 135, 125, 56, 135, 60, 3, 4.25352
331, 3, horizontal, filler, NA, 999, 999, 3, 14, 160, 162, 159, 190, 97, 161, 2, 1.84536
331, 3, horizontal, attraction, a-b-da, 2, 2, 3, 15, 163, 89, 165, 90, 90, 165, 2, 4.75004
331, 3, horizontal, attraction, a-b-db, 14, 3, 3, 16, 120, 195, 111, 181, 195, 120, 1, 3.24081
331, 3, horizontal, attraction, a-b-db, 14, 2, 3, 17, 83, 153, 90, 165, 165, 90, 2, 2.22531
331, 3, horizontal, filler, NA, 999, 999, 3, 18, 163, 62, 150, 59, 130, 148, 3, 1.61938
331, 3, horizontal, filler, NA, 999, 999, 3, 19, 146, 188, 94, 126, 165, 162, 1, 2.30731
331, 3, horizontal, attraction, a-b-da, 5, 1, 3, 20, 135, 60, 132, 58, 60, 135, 3, 2.34508
331, 3, horizontal, attraction, a-b-db, 2, 1, 3, 21, 135, 60, 60, 135, 59, 134, 3, 5.23832
331, 3, horizontal, filler, NA, 999, 999, 3, 22, 172, 161, 129, 160, 132, 102, 1, 1.57516
331, 3, horizontal, attraction, a-b-da, 9, 3, 3, 23, 186, 114, 120, 195, 195, 120, 2, 5.86537
331, 3, horizontal, attraction, a-b-da, 2, 3, 3, 24, 193, 119, 195, 120, 120, 195, 1, 4.22633
331, 3, horizontal, filler, NA, 999, 999, 3, 25, 121, 88, 141, 159, 94, 91, 2, 1.96235
331, 3, horizontal, attraction, a-b-db, 5, 2, 3, 26, 165, 90, 90, 165, 88, 161, 1, 4.1098
331, 3, horizontal, attraction, a-b-da, 14, 2, 3, 27, 90, 165, 165, 90, 153, 83, 1, 1.9381
331, 3, horizontal, attraction, a-b-da, 14, 3, 3, 28, 120, 195, 181, 111, 195, 120, 3, 2.14407
331, 3, horizontal, filler, NA, 999, 999, 3, 29, 62, 144, 67, 57, 149, 82, 3, 1.3953
331, 3, horizontal, attraction, a-b-da, 5, 2, 3, 30, 161, 88, 165, 90, 90, 165, 3, 2.38379
331, 3, horizontal, filler, NA, 999, 999, 3, 31, 121, 166, 95, 109, 134, 118, 1, 2.26568
331, 3, horizontal, attraction, a-b-da, 5, 3, 3, 32, 190, 117, 120, 195, 195, 120, 2, 3.02289
331, 3, horizontal, attraction, a-b-db, 14, 1, 3, 33, 60, 135, 135, 60, 56, 125, 1, 2.21887
331, 3, horizontal, attraction, a-b-db, 5, 1, 3, 34, 60, 135, 135, 60, 58, 132, 3, 2.04068
331, 3, horizontal, filler, NA, 999, 999, 4, 1, 142, 134, 82, 71, 178, 103, 1, 1.97152
331, 3, horizontal, attraction, a-b-da, 9, 2, 4, 2, 157, 86, 165, 90, 90, 165, 2, 1.52718
331, 3, horizontal, attraction, a-b-db, 14, 3, 4, 3, 195, 120, 120, 195, 111, 181, 2, 2.8115
331, 3, horizontal, attraction, a-b-db, 2, 2, 4, 4, 90, 165, 89, 163, 165, 90, 3, 2.13303
331, 3, horizontal, filler, NA, 999, 999, 4, 5, 181, 127, 56, 59, 168, 188, 3, 1.60213
331, 3, horizontal, filler, NA, 999, 999, 4, 6, 169, 147, 124, 174, 150, 138, 1, 1.96421
331, 3, horizontal, filler, NA, 999, 999, 4, 7, 146, 192, 107, 108, 75, 123, 1, 1.16977
331, 3, horizontal, filler, NA, 999, 999, 4, 8, 98, 142, 63, 187, 79, 59, 1, 2.38703
331, 3, horizontal, attraction, a-b-db, 5, 3, 4, 9, 195, 120, 120, 195, 117, 190, 2, 2.39873
331, 3, horizontal, attraction, a-b-da, 14, 1, 4, 10, 125, 56, 135, 60, 60, 135, 2, 1.91416
331, 3, horizontal, filler, NA, 999, 999, 4, 11, 147, 158, 72, 128, 153, 170, 3, 2.1604
331, 3, horizontal, attraction, a-b-db, 14, 1, 4, 12, 56, 125, 135, 60, 60, 135, 3, 2.22635
331, 3, horizontal, attraction, a-b-da, 14, 3, 4, 13, 181, 111, 120, 195, 195, 120, 3, 3.2344
331, 3, horizontal, attraction, a-b-da, 2, 3, 4, 14, 193, 119, 120, 195, 195, 120, 1, 2.99622
331, 3, horizontal, attraction, a-b-da, 5, 3, 4, 15, 120, 195, 195, 120, 190, 117, 2, 4.62203
331, 3, horizontal, filler, NA, 999, 999, 4, 16, 112, 146, 178, 193, 182, 67, 2, 1.46422
331, 3, horizontal, attraction, a-b-da, 5, 2, 4, 17, 165, 90, 90, 165, 161, 88, 1, 3.36018
331, 3, horizontal, attraction, a-b-db, 5, 1, 4, 18, 135, 60, 58, 132, 60, 135, 2, 6.12103
331, 3, horizontal, attraction, a-b-da, 9, 1, 4, 19, 60, 135, 129, 57, 135, 60, 1, 2.10329
331, 3, horizontal, filler, NA, 999, 999, 4, 20, 116, 143, 154, 168, 156, 120, 2, 1.40531
331, 3, horizontal, attraction, a-b-da, 14, 2, 4, 21, 153, 83, 165, 90, 90, 165, 2, 1.90226
331, 3, horizontal, attraction, a-b-db, 2, 1, 4, 22, 60, 135, 59, 134, 135, 60, 3, 5.40491
331, 3, horizontal, attraction, a-b-db, 9, 2, 4, 23, 86, 157, 90, 165, 165, 90, 2, 3.03907
331, 3, horizontal, attraction, a-b-da, 2, 1, 4, 24, 135, 60, 60, 135, 134, 59, 1, 4.20689
331, 3, horizontal, attraction, a-b-db, 2, 3, 4, 25, 195, 120, 120, 195, 119, 193, 1, 2.20924
331, 3, horizontal, attraction, a-b-db, 14, 2, 4, 26, 83, 153, 165, 90, 90, 165, 2, 2.80197
331, 3, horizontal, attraction, a-b-db, 9, 3, 4, 27, 195, 120, 114, 186, 120, 195, 1, 2.00391
331, 3, horizontal, filler, NA, 999, 999, 4, 28, 174, 145, 167, 194, 90, 108, 2, 1.65344
331, 3, horizontal, attraction, a-b-da, 2, 2, 4, 29, 163, 89, 90, 165, 165, 90, 3, 2.71832
331, 3, horizontal, attraction, a-b-db, 5, 2, 4, 30, 88, 161, 165, 90, 90, 165, 2, 2.32297
331, 3, horizontal, filler, NA, 999, 999, 4, 31, 57, 86, 64, 132, 188, 132, 3, 1.32855
331, 3, horizontal, attraction, a-b-da, 5, 1, 4, 32, 135, 60, 60, 135, 132, 58, 1, 1.55668
331, 3, horizontal, attraction, a-b-da, 9, 3, 4, 33, 120, 195, 186, 114, 195, 120, 3, 2.57867
331, 3, horizontal, attraction, a-b-db, 9, 1, 4, 34, 57, 129, 60, 135, 135, 60, 3, 2.24362
