sub_n, computer_n, disp_cond, effect, set, distance, diag, block_n, trial_n, h1, w1, h2, w2, h3, w3, choice, rt 
223, 2, horizontal, practice, NA, 999, 999, 0, 1, 104, 143, 163, 72, 95, 194, 3, 2.09316
223, 2, horizontal, practice, NA, 999, 999, 0, 2, 107, 184, 66, 106, 153, 129, 1, 4.71443
223, 2, horizontal, practice, NA, 999, 999, 0, 3, 168, 68, 190, 71, 189, 143, 3, 1.60091
223, 2, horizontal, filler, NA, 999, 999, 1, 1, 61, 147, 62, 163, 121, 183, 3, 1.9019
223, 2, horizontal, attraction, a-b-da, 5, 1, 1, 2, 60, 135, 132, 58, 135, 60, 3, 3.67729
223, 2, horizontal, attraction, a-b-da, 5, 2, 1, 3, 165, 90, 90, 165, 161, 88, 2, 4.74865
223, 2, horizontal, filler, NA, 999, 999, 1, 4, 104, 149, 112, 187, 60, 176, 2, 1.94434
223, 2, horizontal, attraction, a-b-db, 14, 2, 1, 5, 90, 165, 83, 153, 165, 90, 3, 4.75688
223, 2, horizontal, attraction, a-b-da, 5, 3, 1, 6, 190, 117, 120, 195, 195, 120, 2, 3.75176
223, 2, horizontal, attraction, a-b-da, 2, 3, 1, 7, 193, 119, 195, 120, 120, 195, 3, 5.64243
223, 2, horizontal, attraction, a-b-db, 14, 1, 1, 8, 56, 125, 60, 135, 135, 60, 1, 2.45004
223, 2, horizontal, attraction, a-b-db, 2, 1, 1, 9, 60, 135, 135, 60, 59, 134, 2, 2.90687
223, 2, horizontal, attraction, a-b-da, 9, 3, 1, 10, 195, 120, 120, 195, 186, 114, 2, 4.84096
223, 2, horizontal, attraction, a-b-da, 14, 1, 1, 11, 125, 56, 135, 60, 60, 135, 2, 2.48984
223, 2, horizontal, attraction, a-b-db, 5, 2, 1, 12, 165, 90, 90, 165, 88, 161, 2, 3.94056
223, 2, horizontal, attraction, a-b-da, 9, 1, 1, 13, 129, 57, 60, 135, 135, 60, 1, 1.97648
223, 2, horizontal, attraction, a-b-db, 2, 2, 1, 14, 90, 165, 165, 90, 89, 163, 1, 3.50921
223, 2, horizontal, attraction, a-b-db, 2, 3, 1, 15, 120, 195, 119, 193, 195, 120, 1, 1.88408
223, 2, horizontal, attraction, a-b-db, 9, 2, 1, 16, 165, 90, 86, 157, 90, 165, 3, 2.37735
223, 2, horizontal, attraction, a-b-da, 14, 3, 1, 17, 120, 195, 181, 111, 195, 120, 1, 1.28455
223, 2, horizontal, filler, NA, 999, 999, 1, 18, 152, 74, 57, 181, 57, 84, 2, 2.48473
223, 2, horizontal, attraction, a-b-db, 5, 3, 1, 19, 117, 190, 120, 195, 195, 120, 3, 2.40351
223, 2, horizontal, attraction, a-b-da, 14, 2, 1, 20, 153, 83, 165, 90, 90, 165, 2, 2.65201
223, 2, horizontal, filler, NA, 999, 999, 1, 21, 74, 135, 89, 59, 126, 78, 1, 1.88384
223, 2, horizontal, filler, NA, 999, 999, 1, 22, 103, 63, 73, 100, 153, 189, 3, 1.33088
223, 2, horizontal, filler, NA, 999, 999, 1, 23, 195, 128, 69, 140, 155, 183, 1, 1.28609
223, 2, horizontal, attraction, a-b-db, 14, 3, 1, 24, 120, 195, 111, 181, 195, 120, 1, 2.18982
223, 2, horizontal, attraction, a-b-db, 5, 1, 1, 25, 58, 132, 135, 60, 60, 135, 2, 1.93688
223, 2, horizontal, filler, NA, 999, 999, 1, 26, 183, 95, 188, 159, 70, 86, 2, 1.35757
223, 2, horizontal, filler, NA, 999, 999, 1, 27, 65, 77, 65, 64, 159, 140, 3, 1.69042
223, 2, horizontal, attraction, a-b-db, 9, 1, 1, 28, 60, 135, 57, 129, 135, 60, 1, 2.95519
223, 2, horizontal, attraction, a-b-db, 9, 3, 1, 29, 114, 186, 120, 195, 195, 120, 2, 4.2442
223, 2, horizontal, attraction, a-b-da, 2, 1, 1, 30, 60, 135, 135, 60, 134, 59, 2, 2.94941
223, 2, horizontal, filler, NA, 999, 999, 1, 31, 108, 147, 111, 154, 77, 80, 2, 1.96124
223, 2, horizontal, filler, NA, 999, 999, 1, 32, 190, 63, 166, 175, 118, 133, 2, 1.89234
223, 2, horizontal, attraction, a-b-da, 9, 2, 1, 33, 157, 86, 90, 165, 165, 90, 3, 3.77831
223, 2, horizontal, attraction, a-b-da, 2, 2, 1, 34, 90, 165, 165, 90, 163, 89, 2, 5.30277
223, 2, horizontal, filler, NA, 999, 999, 2, 1, 57, 118, 143, 73, 172, 178, 3, 1.14637
223, 2, horizontal, filler, NA, 999, 999, 2, 2, 183, 127, 101, 115, 69, 91, 1, 1.256
223, 2, horizontal, filler, NA, 999, 999, 2, 3, 124, 73, 61, 134, 91, 81, 2, 3.04722
223, 2, horizontal, attraction, a-b-da, 9, 3, 2, 4, 120, 195, 195, 120, 186, 114, 2, 4.65725
223, 2, horizontal, attraction, a-b-da, 2, 3, 2, 5, 120, 195, 195, 120, 193, 119, 1, 1.90376
223, 2, horizontal, attraction, a-b-da, 14, 3, 2, 6, 181, 111, 195, 120, 120, 195, 2, 5.02028
223, 2, horizontal, filler, NA, 999, 999, 2, 7, 137, 158, 171, 155, 66, 170, 2, 3.06994
223, 2, horizontal, attraction, a-b-db, 2, 1, 2, 8, 135, 60, 59, 134, 60, 135, 1, 1.98357
223, 2, horizontal, filler, NA, 999, 999, 2, 9, 145, 119, 114, 105, 63, 178, 1, 2.03164
223, 2, horizontal, filler, NA, 999, 999, 2, 10, 96, 163, 176, 159, 133, 143, 2, 1.20947
223, 2, horizontal, attraction, a-b-da, 9, 2, 2, 11, 165, 90, 90, 165, 157, 86, 1, 1.13876
223, 2, horizontal, attraction, a-b-da, 14, 2, 2, 12, 165, 90, 90, 165, 153, 83, 1, 1.18377
223, 2, horizontal, attraction, a-b-da, 5, 2, 2, 13, 161, 88, 90, 165, 165, 90, 2, 2.32304
223, 2, horizontal, attraction, a-b-da, 14, 1, 2, 14, 60, 135, 135, 60, 125, 56, 2, 1.77566
223, 2, horizontal, attraction, a-b-db, 5, 2, 2, 15, 88, 161, 90, 165, 165, 90, 3, 1.95689
223, 2, horizontal, attraction, a-b-da, 5, 3, 2, 16, 195, 120, 190, 117, 120, 195, 1, 2.65487
223, 2, horizontal, attraction, a-b-db, 14, 3, 2, 17, 195, 120, 120, 195, 111, 181, 1, 1.23027
223, 2, horizontal, filler, NA, 999, 999, 2, 18, 188, 166, 165, 164, 131, 146, 1, 1.86536
223, 2, horizontal, attraction, a-b-da, 2, 1, 2, 19, 60, 135, 135, 60, 134, 59, 2, 2.34596
223, 2, horizontal, attraction, a-b-db, 5, 3, 2, 20, 120, 195, 117, 190, 195, 120, 1, 1.75699
223, 2, horizontal, attraction, a-b-db, 2, 2, 2, 21, 89, 163, 165, 90, 90, 165, 3, 2.33057
223, 2, horizontal, filler, NA, 999, 999, 2, 22, 72, 111, 156, 132, 153, 73, 2, 1.5333
223, 2, horizontal, attraction, a-b-da, 5, 1, 2, 23, 60, 135, 135, 60, 132, 58, 2, 1.50561
223, 2, horizontal, attraction, a-b-da, 2, 2, 2, 24, 165, 90, 163, 89, 90, 165, 3, 1.87327
223, 2, horizontal, attraction, a-b-db, 9, 1, 2, 25, 60, 135, 57, 129, 135, 60, 3, 1.24965
223, 2, horizontal, filler, NA, 999, 999, 2, 26, 184, 185, 73, 126, 142, 130, 1, 1.0886
223, 2, horizontal, attraction, a-b-db, 14, 2, 2, 27, 165, 90, 83, 153, 90, 165, 1, 1.97577
223, 2, horizontal, attraction, a-b-db, 2, 3, 2, 28, 119, 193, 195, 120, 120, 195, 1, 2.09104
223, 2, horizontal, attraction, a-b-db, 9, 3, 2, 29, 114, 186, 120, 195, 195, 120, 3, 1.27314
223, 2, horizontal, attraction, a-b-db, 5, 1, 2, 30, 58, 132, 135, 60, 60, 135, 2, 1.89712
223, 2, horizontal, attraction, a-b-da, 9, 1, 2, 31, 60, 135, 129, 57, 135, 60, 3, 1.71159
223, 2, horizontal, attraction, a-b-db, 14, 1, 2, 32, 60, 135, 135, 60, 56, 125, 1, 1.50871
223, 2, horizontal, filler, NA, 999, 999, 2, 33, 109, 111, 189, 168, 186, 151, 2, 1.66827
223, 2, horizontal, attraction, a-b-db, 9, 2, 2, 34, 90, 165, 165, 90, 86, 157, 2, 1.76392
223, 2, horizontal, attraction, a-b-db, 2, 1, 3, 1, 135, 60, 60, 135, 59, 134, 1, 2.47934
223, 2, horizontal, filler, NA, 999, 999, 3, 2, 81, 100, 102, 99, 152, 82, 3, 3.72743
223, 2, horizontal, filler, NA, 999, 999, 3, 3, 114, 149, 125, 157, 120, 90, 1, 1.97084
223, 2, horizontal, attraction, a-b-db, 2, 2, 3, 4, 165, 90, 89, 163, 90, 165, 1, 1.41346
223, 2, horizontal, filler, NA, 999, 999, 3, 5, 119, 141, 130, 71, 181, 93, 1, 1.69729
223, 2, horizontal, attraction, a-b-da, 5, 2, 3, 6, 90, 165, 161, 88, 165, 90, 1, 6.53596
223, 2, horizontal, attraction, a-b-db, 9, 1, 3, 7, 135, 60, 57, 129, 60, 135, 1, 1.32169
223, 2, horizontal, attraction, a-b-db, 9, 2, 3, 8, 165, 90, 86, 157, 90, 165, 2, 1.67783
223, 2, horizontal, filler, NA, 999, 999, 3, 9, 131, 98, 90, 70, 167, 137, 3, 1.03876
223, 2, horizontal, attraction, a-b-da, 9, 1, 3, 10, 135, 60, 60, 135, 129, 57, 1, 1.1842
223, 2, horizontal, attraction, a-b-db, 2, 3, 3, 11, 120, 195, 195, 120, 119, 193, 1, 1.6346
223, 2, horizontal, attraction, a-b-db, 5, 2, 3, 12, 90, 165, 88, 161, 165, 90, 3, 2.78699
223, 2, horizontal, filler, NA, 999, 999, 3, 13, 190, 165, 163, 172, 159, 100, 1, 1.09338
223, 2, horizontal, attraction, a-b-db, 14, 2, 3, 14, 83, 153, 90, 165, 165, 90, 3, 2.1007
223, 2, horizontal, filler, NA, 999, 999, 3, 15, 140, 191, 155, 187, 113, 155, 1, 2.25072
223, 2, horizontal, attraction, a-b-db, 5, 1, 3, 16, 135, 60, 60, 135, 58, 132, 2, 1.38678
223, 2, horizontal, filler, NA, 999, 999, 3, 17, 164, 98, 186, 76, 142, 138, 3, 1.94947
223, 2, horizontal, attraction, a-b-da, 9, 3, 3, 18, 120, 195, 186, 114, 195, 120, 1, 2.05674
223, 2, horizontal, attraction, a-b-da, 9, 2, 3, 19, 165, 90, 157, 86, 90, 165, 3, 1.59366
223, 2, horizontal, attraction, a-b-da, 5, 3, 3, 20, 120, 195, 190, 117, 195, 120, 1, 1.66823
223, 2, horizontal, filler, NA, 999, 999, 3, 21, 123, 68, 104, 105, 124, 146, 3, 1.40379
223, 2, horizontal, filler, NA, 999, 999, 3, 22, 96, 56, 92, 177, 109, 147, 2, 1.8379
223, 2, horizontal, attraction, a-b-db, 9, 3, 3, 23, 120, 195, 114, 186, 195, 120, 1, 1.61388
223, 2, horizontal, attraction, a-b-da, 2, 3, 3, 24, 195, 120, 120, 195, 193, 119, 2, 1.63107
223, 2, horizontal, attraction, a-b-da, 14, 3, 3, 25, 120, 195, 181, 111, 195, 120, 1, 1.72863
223, 2, horizontal, attraction, a-b-da, 2, 1, 3, 26, 60, 135, 135, 60, 134, 59, 2, 1.58952
223, 2, horizontal, filler, NA, 999, 999, 3, 27, 181, 141, 81, 163, 56, 192, 1, 1.13671
223, 2, horizontal, attraction, a-b-db, 14, 1, 3, 28, 135, 60, 60, 135, 56, 125, 2, 1.80445
223, 2, horizontal, attraction, a-b-db, 5, 3, 3, 29, 120, 195, 195, 120, 117, 190, 1, 3.11841
223, 2, horizontal, attraction, a-b-da, 5, 1, 3, 30, 60, 135, 132, 58, 135, 60, 1, 2.98251
223, 2, horizontal, attraction, a-b-da, 14, 1, 3, 31, 135, 60, 125, 56, 60, 135, 2, 2.28959
223, 2, horizontal, attraction, a-b-db, 14, 3, 3, 32, 195, 120, 120, 195, 111, 181, 2, 1.22914
223, 2, horizontal, attraction, a-b-da, 14, 2, 3, 33, 153, 83, 90, 165, 165, 90, 1, 1.35275
223, 2, horizontal, attraction, a-b-da, 2, 2, 3, 34, 90, 165, 163, 89, 165, 90, 1, 1.60228
223, 2, horizontal, attraction, a-b-db, 5, 1, 4, 1, 58, 132, 60, 135, 135, 60, 3, 2.87872
223, 2, horizontal, attraction, a-b-db, 2, 2, 4, 2, 89, 163, 90, 165, 165, 90, 1, 3.36526
223, 2, horizontal, attraction, a-b-db, 2, 3, 4, 3, 120, 195, 119, 193, 195, 120, 2, 1.231
223, 2, horizontal, attraction, a-b-da, 9, 3, 4, 4, 186, 114, 195, 120, 120, 195, 2, 1.21944
223, 2, horizontal, attraction, a-b-db, 5, 2, 4, 5, 88, 161, 90, 165, 165, 90, 1, 1.25245
223, 2, horizontal, attraction, a-b-db, 9, 1, 4, 6, 57, 129, 135, 60, 60, 135, 2, 1.45926
223, 2, horizontal, filler, NA, 999, 999, 4, 7, 148, 68, 185, 193, 89, 178, 2, 1.24275
223, 2, horizontal, attraction, a-b-da, 2, 1, 4, 8, 134, 59, 135, 60, 60, 135, 3, 1.46639
223, 2, horizontal, attraction, a-b-da, 2, 2, 4, 9, 90, 165, 163, 89, 165, 90, 1, 1.3623
223, 2, horizontal, attraction, a-b-da, 9, 2, 4, 10, 90, 165, 165, 90, 157, 86, 1, 1.26394
223, 2, horizontal, attraction, a-b-db, 14, 1, 4, 11, 56, 125, 135, 60, 60, 135, 2, 1.36621
223, 2, horizontal, attraction, a-b-db, 9, 3, 4, 12, 195, 120, 114, 186, 120, 195, 3, 3.84316
223, 2, horizontal, filler, NA, 999, 999, 4, 13, 125, 163, 140, 59, 122, 187, 3, 1.18695
223, 2, horizontal, filler, NA, 999, 999, 4, 14, 97, 159, 169, 152, 161, 83, 2, 1.1979
223, 2, horizontal, attraction, a-b-da, 14, 2, 4, 15, 153, 83, 165, 90, 90, 165, 2, 1.15304
223, 2, horizontal, attraction, a-b-da, 2, 3, 4, 16, 193, 119, 120, 195, 195, 120, 2, 2.2277
223, 2, horizontal, attraction, a-b-da, 14, 3, 4, 17, 120, 195, 195, 120, 181, 111, 1, 1.55922
223, 2, horizontal, filler, NA, 999, 999, 4, 18, 122, 170, 65, 104, 96, 140, 1, 1.42685
223, 2, horizontal, filler, NA, 999, 999, 4, 19, 166, 121, 138, 162, 104, 118, 1, 1.5635
223, 2, horizontal, filler, NA, 999, 999, 4, 20, 179, 186, 117, 96, 119, 175, 1, 1.06409
223, 2, horizontal, attraction, a-b-da, 5, 1, 4, 21, 135, 60, 60, 135, 132, 58, 1, 2.19757
223, 2, horizontal, attraction, a-b-da, 9, 1, 4, 22, 129, 57, 60, 135, 135, 60, 2, 3.60878
223, 2, horizontal, filler, NA, 999, 999, 4, 23, 132, 79, 102, 121, 77, 134, 2, 1.95275
223, 2, horizontal, attraction, a-b-db, 14, 2, 4, 24, 90, 165, 165, 90, 83, 153, 1, 1.30341
223, 2, horizontal, attraction, a-b-db, 5, 3, 4, 25, 195, 120, 117, 190, 120, 195, 2, 1.71644
223, 2, horizontal, attraction, a-b-db, 14, 3, 4, 26, 195, 120, 120, 195, 111, 181, 2, 1.67378
223, 2, horizontal, filler, NA, 999, 999, 4, 27, 88, 179, 114, 127, 170, 121, 3, 1.73748
223, 2, horizontal, filler, NA, 999, 999, 4, 28, 60, 171, 192, 193, 72, 126, 2, 1.25312
223, 2, horizontal, filler, NA, 999, 999, 4, 29, 57, 57, 192, 91, 143, 193, 3, 1.27902
223, 2, horizontal, attraction, a-b-da, 5, 3, 4, 30, 195, 120, 120, 195, 190, 117, 2, 2.03049
223, 2, horizontal, attraction, a-b-da, 5, 2, 4, 31, 161, 88, 165, 90, 90, 165, 3, 1.7757
223, 2, horizontal, attraction, a-b-da, 14, 1, 4, 32, 125, 56, 60, 135, 135, 60, 1, 1.28226
223, 2, horizontal, attraction, a-b-db, 9, 2, 4, 33, 165, 90, 86, 157, 90, 165, 2, 1.30713
223, 2, horizontal, attraction, a-b-db, 2, 1, 4, 34, 60, 135, 59, 134, 135, 60, 3, 1.47291
