sub_n, computer_n, disp_cond, effect, set, distance, diag, block_n, trial_n, h1, w1, h2, w2, h3, w3, choice, rt 
43, 4, horizontal, practice, NA, 999, 999, 0, 1, 117, 165, 98, 182, 107, 96, 1, 2.13885
43, 4, horizontal, practice, NA, 999, 999, 0, 2, 67, 116, 177, 94, 131, 128, 2, 4.72659
43, 4, horizontal, practice, NA, 999, 999, 0, 3, 187, 101, 126, 62, 111, 130, 1, 2.40388
43, 4, horizontal, filler, NA, 999, 999, 1, 1, 122, 89, 193, 76, 58, 192, 2, 5.41337
43, 4, horizontal, attraction, a-b-db, 2, 3, 1, 2, 120, 195, 119, 193, 195, 120, 1, 3.10973
43, 4, horizontal, attraction, a-b-db, 9, 3, 1, 3, 195, 120, 114, 186, 120, 195, 3, 2.53336
43, 4, horizontal, attraction, a-b-db, 14, 3, 1, 4, 195, 120, 120, 195, 111, 181, 2, 2.17895
43, 4, horizontal, attraction, a-b-da, 2, 3, 1, 5, 120, 195, 193, 119, 195, 120, 1, 2.65536
43, 4, horizontal, attraction, a-b-da, 2, 1, 1, 6, 134, 59, 135, 60, 60, 135, 3, 5.00668
43, 4, horizontal, attraction, a-b-da, 9, 2, 1, 7, 165, 90, 157, 86, 90, 165, 3, 4.65955
43, 4, horizontal, attraction, a-b-da, 5, 2, 1, 8, 161, 88, 90, 165, 165, 90, 2, 2.58489
43, 4, horizontal, attraction, a-b-db, 5, 3, 1, 9, 195, 120, 117, 190, 120, 195, 3, 2.75695
43, 4, horizontal, attraction, a-b-db, 9, 1, 1, 10, 135, 60, 57, 129, 60, 135, 3, 2.44298
43, 4, horizontal, attraction, a-b-da, 9, 3, 1, 11, 120, 195, 186, 114, 195, 120, 3, 3.29169
43, 4, horizontal, filler, NA, 999, 999, 1, 12, 107, 88, 59, 129, 133, 191, 3, 1.6991
43, 4, horizontal, attraction, a-b-da, 9, 1, 1, 13, 135, 60, 129, 57, 60, 135, 3, 2.82812
43, 4, horizontal, filler, NA, 999, 999, 1, 14, 63, 148, 142, 83, 72, 124, 2, 2.68357
43, 4, horizontal, attraction, a-b-db, 14, 2, 1, 15, 90, 165, 83, 153, 165, 90, 1, 3.18754
43, 4, horizontal, attraction, a-b-da, 5, 1, 1, 16, 60, 135, 132, 58, 135, 60, 1, 6.87825
43, 4, horizontal, attraction, a-b-da, 14, 3, 1, 17, 120, 195, 195, 120, 181, 111, 1, 1.86135
43, 4, horizontal, filler, NA, 999, 999, 1, 18, 64, 147, 153, 113, 164, 171, 3, 1.70275
43, 4, horizontal, attraction, a-b-db, 5, 2, 1, 19, 90, 165, 88, 161, 165, 90, 1, 2.46343
43, 4, horizontal, attraction, a-b-db, 9, 2, 1, 20, 86, 157, 90, 165, 165, 90, 2, 2.21274
43, 4, horizontal, filler, NA, 999, 999, 1, 21, 59, 155, 108, 101, 165, 133, 3, 1.35813
43, 4, horizontal, filler, NA, 999, 999, 1, 22, 171, 107, 96, 103, 140, 70, 1, 1.63602
43, 4, horizontal, attraction, a-b-db, 2, 2, 1, 23, 165, 90, 90, 165, 89, 163, 3, 2.86946
43, 4, horizontal, attraction, a-b-db, 2, 1, 1, 24, 60, 135, 59, 134, 135, 60, 1, 1.90928
43, 4, horizontal, filler, NA, 999, 999, 1, 25, 107, 100, 102, 72, 146, 155, 3, 1.52345
43, 4, horizontal, attraction, a-b-da, 14, 2, 1, 26, 90, 165, 153, 83, 165, 90, 1, 3.45061
43, 4, horizontal, filler, NA, 999, 999, 1, 27, 188, 172, 115, 91, 126, 58, 1, 1.69959
43, 4, horizontal, filler, NA, 999, 999, 1, 28, 94, 83, 167, 69, 80, 84, 2, 3.10718
43, 4, horizontal, attraction, a-b-db, 5, 1, 1, 29, 60, 135, 135, 60, 58, 132, 1, 4.09747
43, 4, horizontal, filler, NA, 999, 999, 1, 30, 154, 75, 117, 158, 118, 61, 2, 1.54441
43, 4, horizontal, attraction, a-b-da, 5, 3, 1, 31, 120, 195, 190, 117, 195, 120, 1, 4.57966
43, 4, horizontal, attraction, a-b-db, 14, 1, 1, 32, 135, 60, 60, 135, 56, 125, 2, 2.62526
43, 4, horizontal, attraction, a-b-da, 2, 2, 1, 33, 163, 89, 165, 90, 90, 165, 3, 3.4661
43, 4, horizontal, attraction, a-b-da, 14, 1, 1, 34, 125, 56, 135, 60, 60, 135, 3, 3.06572
43, 4, horizontal, filler, NA, 999, 999, 2, 1, 123, 76, 113, 182, 128, 105, 2, 1.84951
43, 4, horizontal, attraction, a-b-db, 9, 3, 2, 2, 195, 120, 120, 195, 114, 186, 2, 1.96363
43, 4, horizontal, filler, NA, 999, 999, 2, 3, 127, 99, 91, 180, 80, 115, 2, 2.69577
43, 4, horizontal, attraction, a-b-db, 5, 2, 2, 4, 88, 161, 165, 90, 90, 165, 3, 3.53178
43, 4, horizontal, attraction, a-b-da, 9, 3, 2, 5, 195, 120, 186, 114, 120, 195, 3, 1.8585
43, 4, horizontal, attraction, a-b-da, 14, 2, 2, 6, 90, 165, 153, 83, 165, 90, 1, 3.546
43, 4, horizontal, filler, NA, 999, 999, 2, 7, 118, 129, 190, 79, 163, 147, 3, 1.3916
43, 4, horizontal, attraction, a-b-da, 14, 3, 2, 8, 195, 120, 181, 111, 120, 195, 3, 1.9151
43, 4, horizontal, filler, NA, 999, 999, 2, 9, 97, 112, 189, 175, 161, 186, 2, 1.81694
43, 4, horizontal, attraction, a-b-db, 9, 1, 2, 10, 57, 129, 60, 135, 135, 60, 2, 2.76357
43, 4, horizontal, attraction, a-b-db, 9, 2, 2, 11, 165, 90, 86, 157, 90, 165, 3, 2.55973
43, 4, horizontal, attraction, a-b-da, 9, 2, 2, 12, 157, 86, 90, 165, 165, 90, 2, 2.07615
43, 4, horizontal, attraction, a-b-da, 2, 3, 2, 13, 193, 119, 195, 120, 120, 195, 3, 2.14642
43, 4, horizontal, filler, NA, 999, 999, 2, 14, 104, 132, 140, 93, 64, 157, 1, 2.80944
43, 4, horizontal, filler, NA, 999, 999, 2, 15, 108, 130, 152, 154, 140, 100, 2, 1.63404
43, 4, horizontal, attraction, a-b-da, 2, 2, 2, 16, 165, 90, 90, 165, 163, 89, 2, 5.02707
43, 4, horizontal, attraction, a-b-da, 5, 3, 2, 17, 195, 120, 120, 195, 190, 117, 2, 2.66093
43, 4, horizontal, attraction, a-b-da, 9, 1, 2, 18, 135, 60, 60, 135, 129, 57, 2, 2.77363
43, 4, horizontal, attraction, a-b-db, 2, 3, 2, 19, 119, 193, 120, 195, 195, 120, 2, 2.7009
43, 4, horizontal, attraction, a-b-db, 2, 1, 2, 20, 60, 135, 135, 60, 59, 134, 1, 3.73927
43, 4, horizontal, attraction, a-b-db, 2, 2, 2, 21, 89, 163, 165, 90, 90, 165, 3, 1.99822
43, 4, horizontal, attraction, a-b-db, 5, 1, 2, 22, 135, 60, 60, 135, 58, 132, 2, 3.46407
43, 4, horizontal, filler, NA, 999, 999, 2, 23, 62, 59, 64, 166, 131, 78, 3, 1.95343
43, 4, horizontal, attraction, a-b-db, 14, 1, 2, 24, 60, 135, 135, 60, 56, 125, 2, 1.81482
43, 4, horizontal, filler, NA, 999, 999, 2, 25, 57, 127, 99, 61, 147, 163, 3, 1.32182
43, 4, horizontal, attraction, a-b-da, 5, 1, 2, 26, 135, 60, 60, 135, 132, 58, 2, 1.44681
43, 4, horizontal, filler, NA, 999, 999, 2, 27, 102, 79, 97, 160, 95, 128, 2, 1.30225
43, 4, horizontal, attraction, a-b-da, 5, 2, 2, 28, 90, 165, 161, 88, 165, 90, 1, 2.05514
43, 4, horizontal, attraction, a-b-db, 5, 3, 2, 29, 120, 195, 117, 190, 195, 120, 1, 1.84505
43, 4, horizontal, attraction, a-b-db, 14, 3, 2, 30, 120, 195, 195, 120, 111, 181, 1, 1.80917
43, 4, horizontal, attraction, a-b-da, 2, 1, 2, 31, 134, 59, 60, 135, 135, 60, 2, 1.57978
43, 4, horizontal, attraction, a-b-da, 14, 1, 2, 32, 60, 135, 125, 56, 135, 60, 3, 1.84707
43, 4, horizontal, filler, NA, 999, 999, 2, 33, 124, 138, 89, 189, 94, 165, 1, 1.53382
43, 4, horizontal, attraction, a-b-db, 14, 2, 2, 34, 90, 165, 83, 153, 165, 90, 1, 2.02714
43, 4, horizontal, attraction, a-b-db, 2, 1, 3, 1, 60, 135, 59, 134, 135, 60, 1, 2.02863
43, 4, horizontal, attraction, a-b-da, 9, 1, 3, 2, 135, 60, 129, 57, 60, 135, 3, 1.90377
43, 4, horizontal, filler, NA, 999, 999, 3, 3, 76, 63, 83, 97, 59, 190, 3, 1.90923
43, 4, horizontal, attraction, a-b-db, 14, 2, 3, 4, 90, 165, 165, 90, 83, 153, 1, 2.01912
43, 4, horizontal, filler, NA, 999, 999, 3, 5, 89, 98, 99, 141, 142, 109, 3, 1.51012
43, 4, horizontal, attraction, a-b-db, 2, 2, 3, 6, 165, 90, 90, 165, 89, 163, 3, 4.38299
43, 4, horizontal, attraction, a-b-da, 2, 1, 3, 7, 135, 60, 134, 59, 60, 135, 3, 1.84044
43, 4, horizontal, filler, NA, 999, 999, 3, 8, 62, 90, 123, 165, 75, 84, 2, 1.57677
43, 4, horizontal, attraction, a-b-db, 9, 1, 3, 9, 60, 135, 57, 129, 135, 60, 2, 2.93331
43, 4, horizontal, filler, NA, 999, 999, 3, 10, 170, 76, 76, 76, 190, 142, 3, 2.08143
43, 4, horizontal, filler, NA, 999, 999, 3, 11, 148, 86, 106, 69, 118, 195, 3, 1.60946
43, 4, horizontal, attraction, a-b-db, 2, 3, 3, 12, 195, 120, 120, 195, 119, 193, 2, 2.26801
43, 4, horizontal, attraction, a-b-da, 5, 1, 3, 13, 132, 58, 60, 135, 135, 60, 2, 2.30314
43, 4, horizontal, filler, NA, 999, 999, 3, 14, 107, 104, 79, 133, 138, 108, 3, 1.38185
43, 4, horizontal, attraction, a-b-da, 5, 2, 3, 15, 90, 165, 161, 88, 165, 90, 1, 1.95043
43, 4, horizontal, attraction, a-b-db, 5, 2, 3, 16, 90, 165, 88, 161, 165, 90, 1, 2.12415
43, 4, horizontal, attraction, a-b-da, 2, 3, 3, 17, 195, 120, 120, 195, 193, 119, 2, 12.7643
43, 4, horizontal, attraction, a-b-da, 9, 3, 3, 18, 195, 120, 120, 195, 186, 114, 1, 2.12465
43, 4, horizontal, attraction, a-b-da, 14, 3, 3, 19, 120, 195, 181, 111, 195, 120, 3, 2.17193
43, 4, horizontal, attraction, a-b-db, 14, 1, 3, 20, 60, 135, 56, 125, 135, 60, 1, 1.73463
43, 4, horizontal, attraction, a-b-da, 14, 2, 3, 21, 90, 165, 153, 83, 165, 90, 3, 1.78094
43, 4, horizontal, attraction, a-b-db, 9, 2, 3, 22, 165, 90, 86, 157, 90, 165, 3, 1.36995
43, 4, horizontal, filler, NA, 999, 999, 3, 23, 138, 117, 113, 101, 141, 168, 3, 1.34787
43, 4, horizontal, attraction, a-b-db, 14, 3, 3, 24, 111, 181, 195, 120, 120, 195, 3, 1.59353
43, 4, horizontal, filler, NA, 999, 999, 3, 25, 76, 165, 136, 184, 69, 182, 2, 3.20405
43, 4, horizontal, attraction, a-b-da, 5, 3, 3, 26, 195, 120, 190, 117, 120, 195, 3, 1.46301
43, 4, horizontal, attraction, a-b-da, 9, 2, 3, 27, 157, 86, 90, 165, 165, 90, 2, 1.56746
43, 4, horizontal, attraction, a-b-db, 5, 3, 3, 28, 195, 120, 120, 195, 117, 190, 2, 5.50824
43, 4, horizontal, attraction, a-b-db, 5, 1, 3, 29, 135, 60, 60, 135, 58, 132, 2, 1.83357
43, 4, horizontal, attraction, a-b-db, 9, 3, 3, 30, 195, 120, 114, 186, 120, 195, 3, 1.84424
43, 4, horizontal, filler, NA, 999, 999, 3, 31, 91, 107, 71, 147, 195, 168, 3, 1.53186
43, 4, horizontal, attraction, a-b-da, 14, 1, 3, 32, 60, 135, 125, 56, 135, 60, 1, 1.46458
43, 4, horizontal, filler, NA, 999, 999, 3, 33, 59, 57, 102, 59, 87, 59, 2, 1.33772
43, 4, horizontal, attraction, a-b-da, 2, 2, 3, 34, 165, 90, 163, 89, 90, 165, 1, 2.13646
43, 4, horizontal, attraction, a-b-da, 9, 2, 4, 1, 157, 86, 90, 165, 165, 90, 2, 1.65073
43, 4, horizontal, filler, NA, 999, 999, 4, 2, 185, 135, 168, 157, 86, 80, 2, 1.749
43, 4, horizontal, attraction, a-b-db, 2, 2, 4, 3, 90, 165, 89, 163, 165, 90, 1, 4.97188
43, 4, horizontal, attraction, a-b-db, 2, 3, 4, 4, 195, 120, 120, 195, 119, 193, 1, 1.66079
43, 4, horizontal, attraction, a-b-db, 5, 2, 4, 5, 165, 90, 90, 165, 88, 161, 2, 2.28722
43, 4, horizontal, attraction, a-b-da, 2, 1, 4, 6, 134, 59, 135, 60, 60, 135, 3, 2.57293
43, 4, horizontal, attraction, a-b-db, 9, 2, 4, 7, 165, 90, 90, 165, 86, 157, 2, 2.03211
43, 4, horizontal, attraction, a-b-da, 2, 3, 4, 8, 193, 119, 120, 195, 195, 120, 1, 4.29051
43, 4, horizontal, filler, NA, 999, 999, 4, 9, 88, 61, 64, 145, 173, 144, 3, 1.42854
43, 4, horizontal, attraction, a-b-db, 9, 3, 4, 10, 195, 120, 120, 195, 114, 186, 2, 1.58106
43, 4, horizontal, filler, NA, 999, 999, 4, 11, 80, 190, 136, 60, 147, 71, 1, 2.05463
43, 4, horizontal, attraction, a-b-db, 9, 1, 4, 12, 57, 129, 135, 60, 60, 135, 3, 1.44706
43, 4, horizontal, filler, NA, 999, 999, 4, 13, 70, 193, 188, 166, 149, 183, 2, 1.31172
43, 4, horizontal, attraction, a-b-da, 5, 3, 4, 14, 190, 117, 195, 120, 120, 195, 1, 8.44745
43, 4, horizontal, attraction, a-b-da, 5, 1, 4, 15, 60, 135, 135, 60, 132, 58, 2, 2.27233
43, 4, horizontal, attraction, a-b-db, 14, 2, 4, 16, 83, 153, 165, 90, 90, 165, 3, 1.72842
43, 4, horizontal, attraction, a-b-da, 5, 2, 4, 17, 90, 165, 165, 90, 161, 88, 1, 1.91732
43, 4, horizontal, filler, NA, 999, 999, 4, 18, 134, 185, 178, 59, 139, 116, 1, 1.89123
43, 4, horizontal, attraction, a-b-da, 2, 2, 4, 19, 90, 165, 163, 89, 165, 90, 1, 2.28191
43, 4, horizontal, filler, NA, 999, 999, 4, 20, 133, 67, 146, 114, 145, 180, 3, 1.80289
43, 4, horizontal, attraction, a-b-da, 9, 1, 4, 21, 135, 60, 60, 135, 129, 57, 2, 1.96542
43, 4, horizontal, filler, NA, 999, 999, 4, 22, 151, 168, 135, 123, 79, 120, 1, 1.68989
43, 4, horizontal, attraction, a-b-db, 14, 3, 4, 23, 111, 181, 195, 120, 120, 195, 3, 1.76116
43, 4, horizontal, attraction, a-b-db, 5, 3, 4, 24, 195, 120, 117, 190, 120, 195, 3, 1.61285
43, 4, horizontal, filler, NA, 999, 999, 4, 25, 187, 159, 125, 117, 188, 192, 3, 1.52116
43, 4, horizontal, attraction, a-b-db, 5, 1, 4, 26, 58, 132, 60, 135, 135, 60, 2, 3.58041
43, 4, horizontal, attraction, a-b-db, 2, 1, 4, 27, 135, 60, 60, 135, 59, 134, 2, 1.76269
43, 4, horizontal, attraction, a-b-db, 14, 1, 4, 28, 135, 60, 56, 125, 60, 135, 3, 1.59852
43, 4, horizontal, attraction, a-b-da, 14, 1, 4, 29, 125, 56, 135, 60, 60, 135, 3, 1.75969
43, 4, horizontal, attraction, a-b-da, 14, 3, 4, 30, 120, 195, 181, 111, 195, 120, 1, 1.42982
43, 4, horizontal, attraction, a-b-da, 14, 2, 4, 31, 165, 90, 153, 83, 90, 165, 3, 1.54095
43, 4, horizontal, attraction, a-b-da, 9, 3, 4, 32, 186, 114, 120, 195, 195, 120, 2, 2.51698
43, 4, horizontal, filler, NA, 999, 999, 4, 33, 152, 79, 61, 104, 110, 109, 3, 2.96248
43, 4, horizontal, filler, NA, 999, 999, 4, 34, 77, 147, 160, 150, 156, 72, 2, 1.33304
