sub_n, computer_n, disp_cond, effect, set, distance, diag, block_n, trial_n, h1, w1, h2, w2, h3, w3, choice, rt 
267, 1, horizontal, practice, NA, 999, 999, 0, 1, 151, 142, 99, 182, 107, 184, 1, 2.75782
267, 1, horizontal, practice, NA, 999, 999, 0, 2, 148, 139, 63, 145, 94, 57, 1, 1.77947
267, 1, horizontal, practice, NA, 999, 999, 0, 3, 181, 102, 112, 161, 95, 56, 2, 1.83701
267, 1, horizontal, attraction, a-b-db, 2, 1, 1, 1, 59, 134, 60, 135, 135, 60, 2, 2.94073
267, 1, horizontal, filler, NA, 999, 999, 1, 2, 107, 95, 117, 77, 113, 118, 3, 1.87189
267, 1, horizontal, attraction, a-b-da, 5, 2, 1, 3, 165, 90, 90, 165, 161, 88, 3, 3.21509
267, 1, horizontal, attraction, a-b-da, 9, 2, 1, 4, 157, 86, 90, 165, 165, 90, 3, 2.72875
267, 1, horizontal, filler, NA, 999, 999, 1, 5, 80, 90, 172, 183, 72, 77, 2, 1.70206
267, 1, horizontal, filler, NA, 999, 999, 1, 6, 161, 186, 125, 173, 167, 120, 1, 1.42839
267, 1, horizontal, attraction, a-b-db, 14, 3, 1, 7, 195, 120, 111, 181, 120, 195, 3, 1.54072
267, 1, horizontal, attraction, a-b-da, 14, 1, 1, 8, 135, 60, 60, 135, 125, 56, 2, 2.11221
267, 1, horizontal, attraction, a-b-db, 9, 3, 1, 9, 114, 186, 195, 120, 120, 195, 1, 2.15812
267, 1, horizontal, filler, NA, 999, 999, 1, 10, 172, 129, 152, 111, 168, 68, 1, 1.38956
267, 1, horizontal, filler, NA, 999, 999, 1, 11, 163, 164, 138, 153, 74, 107, 1, 1.67825
267, 1, horizontal, attraction, a-b-da, 14, 3, 1, 12, 181, 111, 195, 120, 120, 195, 2, 1.46136
267, 1, horizontal, attraction, a-b-da, 14, 2, 1, 13, 90, 165, 153, 83, 165, 90, 3, 1.41451
267, 1, horizontal, filler, NA, 999, 999, 1, 14, 149, 145, 98, 155, 117, 69, 1, 4.04707
267, 1, horizontal, attraction, a-b-db, 9, 2, 1, 15, 90, 165, 86, 157, 165, 90, 3, 1.70607
267, 1, horizontal, attraction, a-b-db, 5, 1, 1, 16, 60, 135, 58, 132, 135, 60, 3, 3.7279
267, 1, horizontal, filler, NA, 999, 999, 1, 17, 93, 96, 88, 120, 107, 195, 3, 1.84353
267, 1, horizontal, attraction, a-b-db, 2, 3, 1, 18, 195, 120, 119, 193, 120, 195, 1, 2.64296
267, 1, horizontal, attraction, a-b-da, 2, 1, 1, 19, 134, 59, 135, 60, 60, 135, 2, 3.258
267, 1, horizontal, filler, NA, 999, 999, 1, 20, 112, 108, 178, 108, 187, 162, 3, 1.49063
267, 1, horizontal, attraction, a-b-da, 2, 2, 1, 21, 165, 90, 90, 165, 163, 89, 1, 2.04412
267, 1, horizontal, attraction, a-b-db, 5, 2, 1, 22, 90, 165, 88, 161, 165, 90, 3, 2.90164
267, 1, horizontal, filler, NA, 999, 999, 1, 23, 117, 91, 115, 61, 152, 178, 3, 1.44934
267, 1, horizontal, attraction, a-b-da, 5, 3, 1, 24, 195, 120, 190, 117, 120, 195, 1, 2.10537
267, 1, horizontal, attraction, a-b-db, 14, 2, 1, 25, 90, 165, 83, 153, 165, 90, 1, 5.51835
267, 1, horizontal, attraction, a-b-da, 9, 3, 1, 26, 186, 114, 120, 195, 195, 120, 1, 1.33184
267, 1, horizontal, attraction, a-b-db, 9, 1, 1, 27, 57, 129, 135, 60, 60, 135, 3, 1.70359
267, 1, horizontal, attraction, a-b-da, 5, 1, 1, 28, 132, 58, 60, 135, 135, 60, 2, 1.46999
267, 1, horizontal, attraction, a-b-db, 14, 1, 1, 29, 60, 135, 56, 125, 135, 60, 3, 1.50027
267, 1, horizontal, filler, NA, 999, 999, 1, 30, 125, 151, 155, 101, 158, 82, 1, 1.57815
267, 1, horizontal, attraction, a-b-db, 5, 3, 1, 31, 117, 190, 195, 120, 120, 195, 2, 1.41348
267, 1, horizontal, attraction, a-b-da, 9, 1, 1, 32, 129, 57, 60, 135, 135, 60, 1, 1.39405
267, 1, horizontal, attraction, a-b-db, 2, 2, 1, 33, 90, 165, 89, 163, 165, 90, 1, 1.69218
267, 1, horizontal, attraction, a-b-da, 2, 3, 1, 34, 120, 195, 193, 119, 195, 120, 2, 1.11385
267, 1, horizontal, filler, NA, 999, 999, 2, 1, 187, 100, 194, 180, 116, 170, 2, 1.2474
267, 1, horizontal, filler, NA, 999, 999, 2, 2, 128, 81, 93, 161, 129, 66, 2, 1.7458
267, 1, horizontal, attraction, a-b-db, 5, 1, 2, 3, 60, 135, 135, 60, 58, 132, 1, 1.63168
267, 1, horizontal, filler, NA, 999, 999, 2, 4, 159, 157, 176, 176, 79, 155, 2, 1.23124
267, 1, horizontal, attraction, a-b-db, 9, 2, 2, 5, 165, 90, 86, 157, 90, 165, 1, 1.3681
267, 1, horizontal, attraction, a-b-db, 5, 3, 2, 6, 117, 190, 120, 195, 195, 120, 3, 1.60498
267, 1, horizontal, attraction, a-b-db, 2, 1, 2, 7, 135, 60, 59, 134, 60, 135, 1, 3.40717
267, 1, horizontal, attraction, a-b-da, 5, 3, 2, 8, 190, 117, 195, 120, 120, 195, 1, 1.40788
267, 1, horizontal, attraction, a-b-db, 5, 2, 2, 9, 165, 90, 88, 161, 90, 165, 1, 1.25865
267, 1, horizontal, attraction, a-b-db, 2, 3, 2, 10, 119, 193, 195, 120, 120, 195, 1, 1.97061
267, 1, horizontal, attraction, a-b-da, 2, 1, 2, 11, 134, 59, 135, 60, 60, 135, 1, 1.78096
267, 1, horizontal, filler, NA, 999, 999, 2, 12, 128, 122, 162, 157, 90, 87, 2, 1.786
267, 1, horizontal, attraction, a-b-da, 9, 1, 2, 13, 129, 57, 135, 60, 60, 135, 1, 1.89031
267, 1, horizontal, attraction, a-b-db, 14, 3, 2, 14, 120, 195, 195, 120, 111, 181, 1, 1.70612
267, 1, horizontal, filler, NA, 999, 999, 2, 15, 77, 95, 100, 151, 142, 67, 2, 2.17563
267, 1, horizontal, attraction, a-b-da, 14, 1, 2, 16, 125, 56, 135, 60, 60, 135, 3, 1.89228
267, 1, horizontal, attraction, a-b-da, 9, 3, 2, 17, 195, 120, 186, 114, 120, 195, 1, 1.77101
267, 1, horizontal, attraction, a-b-db, 14, 1, 2, 18, 60, 135, 135, 60, 56, 125, 1, 2.47565
267, 1, horizontal, attraction, a-b-db, 2, 2, 2, 19, 165, 90, 90, 165, 89, 163, 1, 4.81337
267, 1, horizontal, attraction, a-b-da, 2, 3, 2, 20, 120, 195, 193, 119, 195, 120, 2, 2.11854
267, 1, horizontal, filler, NA, 999, 999, 2, 21, 66, 69, 106, 151, 171, 143, 3, 1.52397
267, 1, horizontal, attraction, a-b-da, 5, 2, 2, 22, 165, 90, 90, 165, 161, 88, 1, 1.47314
267, 1, horizontal, attraction, a-b-da, 14, 3, 2, 23, 195, 120, 181, 111, 120, 195, 1, 1.4079
267, 1, horizontal, attraction, a-b-db, 9, 1, 2, 24, 57, 129, 60, 135, 135, 60, 2, 2.94705
267, 1, horizontal, attraction, a-b-db, 9, 3, 2, 25, 114, 186, 120, 195, 195, 120, 1, 2.13462
267, 1, horizontal, attraction, a-b-da, 14, 2, 2, 26, 165, 90, 90, 165, 153, 83, 1, 1.5541
267, 1, horizontal, filler, NA, 999, 999, 2, 27, 133, 86, 161, 158, 154, 114, 2, 1.51885
267, 1, horizontal, attraction, a-b-da, 5, 1, 2, 28, 132, 58, 135, 60, 60, 135, 3, 1.54942
267, 1, horizontal, attraction, a-b-db, 14, 2, 2, 29, 90, 165, 165, 90, 83, 153, 2, 1.34627
267, 1, horizontal, filler, NA, 999, 999, 2, 30, 149, 90, 126, 182, 112, 114, 2, 1.3671
267, 1, horizontal, filler, NA, 999, 999, 2, 31, 162, 80, 99, 74, 168, 65, 1, 1.97772
267, 1, horizontal, attraction, a-b-da, 9, 2, 2, 32, 165, 90, 90, 165, 157, 86, 1, 1.3582
267, 1, horizontal, filler, NA, 999, 999, 2, 33, 107, 141, 78, 88, 154, 173, 3, 1.29639
267, 1, horizontal, attraction, a-b-da, 2, 2, 2, 34, 163, 89, 165, 90, 90, 165, 2, 1.36895
267, 1, horizontal, attraction, a-b-db, 14, 1, 3, 1, 60, 135, 135, 60, 56, 125, 1, 1.6186
267, 1, horizontal, attraction, a-b-db, 14, 3, 3, 2, 111, 181, 195, 120, 120, 195, 1, 1.47004
267, 1, horizontal, attraction, a-b-da, 9, 3, 3, 3, 195, 120, 120, 195, 186, 114, 1, 1.79709
267, 1, horizontal, attraction, a-b-db, 14, 2, 3, 4, 90, 165, 165, 90, 83, 153, 1, 1.7817
267, 1, horizontal, attraction, a-b-da, 9, 2, 3, 5, 157, 86, 90, 165, 165, 90, 1, 2.28963
267, 1, horizontal, filler, NA, 999, 999, 3, 6, 99, 57, 129, 167, 113, 99, 2, 1.61016
267, 1, horizontal, attraction, a-b-da, 2, 2, 3, 7, 90, 165, 163, 89, 165, 90, 3, 1.88954
267, 1, horizontal, attraction, a-b-da, 5, 3, 3, 8, 190, 117, 195, 120, 120, 195, 2, 1.24888
267, 1, horizontal, attraction, a-b-db, 5, 2, 3, 9, 90, 165, 165, 90, 88, 161, 2, 1.49708
267, 1, horizontal, attraction, a-b-da, 5, 2, 3, 10, 165, 90, 90, 165, 161, 88, 1, 1.57715
267, 1, horizontal, attraction, a-b-da, 2, 3, 3, 11, 120, 195, 195, 120, 193, 119, 2, 1.41271
267, 1, horizontal, attraction, a-b-db, 9, 2, 3, 12, 165, 90, 90, 165, 86, 157, 1, 1.41314
267, 1, horizontal, attraction, a-b-db, 2, 2, 3, 13, 90, 165, 165, 90, 89, 163, 2, 1.73661
267, 1, horizontal, filler, NA, 999, 999, 3, 14, 96, 174, 116, 102, 71, 138, 1, 1.39949
267, 1, horizontal, attraction, a-b-db, 5, 1, 3, 15, 58, 132, 60, 135, 135, 60, 1, 1.8243
267, 1, horizontal, filler, NA, 999, 999, 3, 16, 160, 107, 97, 161, 91, 155, 1, 1.4182
267, 1, horizontal, attraction, a-b-da, 14, 3, 3, 17, 195, 120, 120, 195, 181, 111, 1, 1.6425
267, 1, horizontal, attraction, a-b-db, 2, 1, 3, 18, 59, 134, 60, 135, 135, 60, 2, 1.5299
267, 1, horizontal, filler, NA, 999, 999, 3, 19, 114, 192, 151, 102, 108, 70, 1, 1.11198
267, 1, horizontal, attraction, a-b-db, 9, 1, 3, 20, 135, 60, 57, 129, 60, 135, 1, 2.26935
267, 1, horizontal, filler, NA, 999, 999, 3, 21, 148, 134, 83, 114, 139, 57, 1, 1.8536
267, 1, horizontal, filler, NA, 999, 999, 3, 22, 162, 117, 149, 139, 187, 128, 3, 4.89419
267, 1, horizontal, attraction, a-b-da, 9, 1, 3, 23, 60, 135, 129, 57, 135, 60, 1, 1.7637
267, 1, horizontal, attraction, a-b-db, 2, 3, 3, 24, 195, 120, 119, 193, 120, 195, 1, 4.20112
267, 1, horizontal, filler, NA, 999, 999, 3, 25, 95, 60, 78, 67, 97, 165, 3, 2.28893
267, 1, horizontal, attraction, a-b-da, 5, 1, 3, 26, 132, 58, 60, 135, 135, 60, 3, 3.23166
267, 1, horizontal, attraction, a-b-da, 14, 1, 3, 27, 125, 56, 135, 60, 60, 135, 2, 2.38465
267, 1, horizontal, filler, NA, 999, 999, 3, 28, 118, 92, 71, 190, 137, 122, 3, 2.03526
267, 1, horizontal, attraction, a-b-da, 2, 1, 3, 29, 134, 59, 60, 135, 135, 60, 1, 1.635
267, 1, horizontal, attraction, a-b-da, 14, 2, 3, 30, 90, 165, 165, 90, 153, 83, 1, 1.58898
267, 1, horizontal, filler, NA, 999, 999, 3, 31, 129, 122, 56, 74, 129, 90, 1, 1.7439
267, 1, horizontal, attraction, a-b-db, 5, 3, 3, 32, 117, 190, 120, 195, 195, 120, 2, 1.70186
267, 1, horizontal, attraction, a-b-db, 9, 3, 3, 33, 114, 186, 195, 120, 120, 195, 2, 1.37848
267, 1, horizontal, filler, NA, 999, 999, 3, 34, 103, 100, 162, 168, 174, 176, 3, 1.39752
267, 1, horizontal, attraction, a-b-db, 5, 1, 4, 1, 60, 135, 58, 132, 135, 60, 1, 1.61754
267, 1, horizontal, filler, NA, 999, 999, 4, 2, 185, 189, 114, 110, 84, 169, 1, 1.68269
267, 1, horizontal, attraction, a-b-db, 2, 1, 4, 3, 60, 135, 135, 60, 59, 134, 1, 2.04155
267, 1, horizontal, attraction, a-b-da, 14, 1, 4, 4, 125, 56, 60, 135, 135, 60, 2, 1.7358
267, 1, horizontal, filler, NA, 999, 999, 4, 5, 176, 150, 114, 195, 62, 69, 1, 1.12667
267, 1, horizontal, attraction, a-b-da, 5, 2, 4, 6, 161, 88, 90, 165, 165, 90, 1, 1.76231
267, 1, horizontal, attraction, a-b-db, 5, 2, 4, 7, 165, 90, 88, 161, 90, 165, 1, 1.47904
267, 1, horizontal, attraction, a-b-db, 2, 2, 4, 8, 165, 90, 89, 163, 90, 165, 1, 1.66958
267, 1, horizontal, attraction, a-b-db, 9, 2, 4, 9, 165, 90, 90, 165, 86, 157, 1, 1.31032
267, 1, horizontal, attraction, a-b-da, 14, 2, 4, 10, 153, 83, 90, 165, 165, 90, 2, 1.88422
267, 1, horizontal, filler, NA, 999, 999, 4, 11, 66, 95, 104, 167, 153, 88, 2, 1.66774
267, 1, horizontal, attraction, a-b-db, 5, 3, 4, 12, 117, 190, 195, 120, 120, 195, 1, 2.54719
267, 1, horizontal, attraction, a-b-da, 2, 2, 4, 13, 163, 89, 90, 165, 165, 90, 1, 1.68069
267, 1, horizontal, attraction, a-b-da, 9, 2, 4, 14, 90, 165, 157, 86, 165, 90, 3, 1.78502
267, 1, horizontal, attraction, a-b-db, 9, 1, 4, 15, 57, 129, 135, 60, 60, 135, 1, 3.49653
267, 1, horizontal, attraction, a-b-da, 2, 3, 4, 16, 195, 120, 193, 119, 120, 195, 3, 4.65544
267, 1, horizontal, attraction, a-b-da, 14, 3, 4, 17, 120, 195, 181, 111, 195, 120, 1, 1.51855
267, 1, horizontal, filler, NA, 999, 999, 4, 18, 147, 72, 108, 85, 179, 163, 3, 1.46072
267, 1, horizontal, attraction, a-b-da, 2, 1, 4, 19, 60, 135, 135, 60, 134, 59, 1, 2.63653
267, 1, horizontal, filler, NA, 999, 999, 4, 20, 100, 56, 89, 108, 72, 157, 2, 2.69387
267, 1, horizontal, filler, NA, 999, 999, 4, 21, 76, 92, 71, 69, 94, 80, 3, 2.77123
267, 1, horizontal, attraction, a-b-db, 9, 3, 4, 22, 114, 186, 195, 120, 120, 195, 1, 2.38249
267, 1, horizontal, attraction, a-b-da, 5, 3, 4, 23, 195, 120, 120, 195, 190, 117, 1, 2.25718
267, 1, horizontal, attraction, a-b-db, 14, 1, 4, 24, 135, 60, 56, 125, 60, 135, 1, 2.37735
267, 1, horizontal, attraction, a-b-db, 2, 3, 4, 25, 120, 195, 195, 120, 119, 193, 2, 1.70839
267, 1, horizontal, attraction, a-b-da, 9, 3, 4, 26, 195, 120, 120, 195, 186, 114, 1, 1.56359
267, 1, horizontal, filler, NA, 999, 999, 4, 27, 165, 146, 85, 145, 168, 89, 1, 1.58295
267, 1, horizontal, filler, NA, 999, 999, 4, 28, 159, 86, 84, 144, 147, 191, 3, 1.31204
267, 1, horizontal, attraction, a-b-db, 14, 2, 4, 29, 90, 165, 165, 90, 83, 153, 1, 1.80805
267, 1, horizontal, attraction, a-b-da, 9, 1, 4, 30, 129, 57, 60, 135, 135, 60, 1, 1.80271
267, 1, horizontal, attraction, a-b-da, 5, 1, 4, 31, 60, 135, 135, 60, 132, 58, 2, 1.45058
267, 1, horizontal, filler, NA, 999, 999, 4, 32, 125, 130, 164, 146, 114, 130, 2, 1.73124
267, 1, horizontal, filler, NA, 999, 999, 4, 33, 59, 163, 59, 96, 159, 62, 1, 1.34408
267, 1, horizontal, attraction, a-b-db, 14, 3, 4, 34, 195, 120, 120, 195, 111, 181, 1, 1.32515
