sub_n, computer_n, disp_cond, effect, set, distance, diag, block_n, trial_n, h1, w1, h2, w2, h3, w3, choice, rt 
434, 5, triangle, practice, NA, 999, 999, 0, 1, 164, 105, 178, 122, 153, 162, 3, 6.8922
434, 5, triangle, practice, NA, 999, 999, 0, 2, 99, 166, 167, 176, 65, 127, 2, 2.30826
434, 5, triangle, practice, NA, 999, 999, 0, 3, 129, 81, 187, 98, 137, 160, 3, 8.315
434, 5, triangle, attraction, a-b-db, 9, 1, 1, 1, 57, 129, 135, 60, 60, 135, 3, 5.96996
434, 5, triangle, filler, NA, 999, 999, 1, 2, 110, 137, 175, 167, 79, 146, 2, 2.24524
434, 5, triangle, attraction, a-b-da, 14, 1, 1, 3, 125, 56, 135, 60, 60, 135, 3, 3.0226
434, 5, triangle, attraction, a-b-db, 2, 3, 1, 4, 195, 120, 119, 193, 120, 195, 2, 11.336
434, 5, triangle, filler, NA, 999, 999, 1, 5, 157, 70, 172, 70, 134, 117, 3, 3.58314
434, 5, triangle, attraction, a-b-db, 5, 3, 1, 6, 120, 195, 117, 190, 195, 120, 1, 15.5941
434, 5, triangle, filler, NA, 999, 999, 1, 7, 146, 190, 148, 176, 104, 158, 1, 2.75829
434, 5, triangle, filler, NA, 999, 999, 1, 8, 116, 116, 171, 159, 88, 87, 2, 3.9467
434, 5, triangle, filler, NA, 999, 999, 1, 9, 194, 71, 167, 126, 159, 190, 3, 1.73375
434, 5, triangle, attraction, a-b-da, 2, 2, 1, 10, 165, 90, 90, 165, 163, 89, 2, 3.56294
434, 5, triangle, attraction, a-b-da, 2, 3, 1, 11, 193, 119, 120, 195, 195, 120, 3, 5.07983
434, 5, triangle, attraction, a-b-db, 14, 1, 1, 12, 60, 135, 56, 125, 135, 60, 3, 2.86992
434, 5, triangle, attraction, a-b-db, 14, 2, 1, 13, 165, 90, 90, 165, 83, 153, 2, 2.52633
434, 5, triangle, attraction, a-b-da, 9, 2, 1, 14, 157, 86, 90, 165, 165, 90, 2, 2.94178
434, 5, triangle, attraction, a-b-db, 5, 1, 1, 15, 58, 132, 135, 60, 60, 135, 2, 2.42817
434, 5, triangle, attraction, a-b-db, 14, 3, 1, 16, 195, 120, 120, 195, 111, 181, 2, 4.24349
434, 5, triangle, attraction, a-b-db, 2, 1, 1, 17, 59, 134, 135, 60, 60, 135, 3, 2.79048
434, 5, triangle, attraction, a-b-db, 5, 2, 1, 18, 90, 165, 88, 161, 165, 90, 1, 6.63255
434, 5, triangle, filler, NA, 999, 999, 1, 19, 138, 182, 163, 90, 183, 161, 3, 1.9084
434, 5, triangle, attraction, a-b-da, 14, 3, 1, 20, 181, 111, 120, 195, 195, 120, 2, 2.13594
434, 5, triangle, attraction, a-b-da, 14, 2, 1, 21, 90, 165, 165, 90, 153, 83, 2, 2.86974
434, 5, triangle, attraction, a-b-db, 9, 2, 1, 22, 86, 157, 90, 165, 165, 90, 2, 2.0779
434, 5, triangle, attraction, a-b-da, 5, 1, 1, 23, 132, 58, 60, 135, 135, 60, 3, 5.01451
434, 5, triangle, attraction, a-b-da, 2, 1, 1, 24, 135, 60, 134, 59, 60, 135, 3, 5.33745
434, 5, triangle, filler, NA, 999, 999, 1, 25, 150, 159, 168, 161, 70, 162, 2, 1.78973
434, 5, triangle, filler, NA, 999, 999, 1, 26, 111, 128, 183, 188, 74, 83, 2, 1.70407
434, 5, triangle, attraction, a-b-da, 5, 2, 1, 27, 90, 165, 161, 88, 165, 90, 3, 6.27858
434, 5, triangle, attraction, a-b-da, 9, 3, 1, 28, 120, 195, 195, 120, 186, 114, 1, 3.02464
434, 5, triangle, attraction, a-b-db, 2, 2, 1, 29, 165, 90, 89, 163, 90, 165, 2, 2.65009
434, 5, triangle, attraction, a-b-db, 9, 3, 1, 30, 114, 186, 120, 195, 195, 120, 2, 2.44842
434, 5, triangle, attraction, a-b-da, 5, 3, 1, 31, 190, 117, 120, 195, 195, 120, 3, 6.0572
434, 5, triangle, filler, NA, 999, 999, 1, 32, 62, 147, 56, 174, 148, 139, 3, 2.27456
434, 5, triangle, filler, NA, 999, 999, 1, 33, 181, 122, 176, 73, 154, 109, 1, 2.21058
434, 5, triangle, attraction, a-b-da, 9, 1, 1, 34, 135, 60, 60, 135, 129, 57, 1, 3.9976
434, 5, triangle, filler, NA, 999, 999, 2, 1, 171, 172, 187, 79, 62, 189, 1, 2.10436
434, 5, triangle, attraction, a-b-da, 14, 2, 2, 2, 153, 83, 90, 165, 165, 90, 3, 2.40656
434, 5, triangle, filler, NA, 999, 999, 2, 3, 156, 178, 135, 140, 154, 147, 1, 1.80975
434, 5, triangle, attraction, a-b-db, 9, 1, 2, 4, 135, 60, 60, 135, 57, 129, 2, 2.18058
434, 5, triangle, attraction, a-b-da, 5, 3, 2, 5, 190, 117, 120, 195, 195, 120, 3, 2.33526
434, 5, triangle, attraction, a-b-db, 14, 1, 2, 6, 60, 135, 56, 125, 135, 60, 1, 5.19168
434, 5, triangle, attraction, a-b-db, 2, 2, 2, 7, 89, 163, 165, 90, 90, 165, 3, 9.39165
434, 5, triangle, attraction, a-b-db, 5, 3, 2, 8, 195, 120, 120, 195, 117, 190, 2, 2.19653
434, 5, triangle, attraction, a-b-da, 5, 2, 2, 9, 165, 90, 90, 165, 161, 88, 2, 2.90152
434, 5, triangle, attraction, a-b-db, 9, 2, 2, 10, 86, 157, 165, 90, 90, 165, 3, 2.25244
434, 5, triangle, filler, NA, 999, 999, 2, 11, 190, 97, 68, 143, 172, 139, 3, 4.7493
434, 5, triangle, attraction, a-b-db, 9, 3, 2, 12, 120, 195, 195, 120, 114, 186, 2, 3.13709
434, 5, triangle, attraction, a-b-db, 14, 2, 2, 13, 165, 90, 83, 153, 90, 165, 3, 2.61629
434, 5, triangle, filler, NA, 999, 999, 2, 14, 67, 136, 169, 80, 69, 174, 2, 4.90589
434, 5, triangle, filler, NA, 999, 999, 2, 15, 111, 128, 105, 190, 195, 94, 2, 4.11301
434, 5, triangle, attraction, a-b-da, 2, 1, 2, 16, 134, 59, 60, 135, 135, 60, 3, 1.9108
434, 5, triangle, attraction, a-b-db, 2, 1, 2, 17, 135, 60, 59, 134, 60, 135, 2, 5.47102
434, 5, triangle, filler, NA, 999, 999, 2, 18, 191, 158, 190, 105, 166, 111, 1, 2.51818
434, 5, triangle, attraction, a-b-da, 14, 3, 2, 19, 120, 195, 181, 111, 195, 120, 3, 4.6513
434, 5, triangle, filler, NA, 999, 999, 2, 20, 125, 160, 122, 192, 166, 65, 2, 4.04525
434, 5, triangle, filler, NA, 999, 999, 2, 21, 65, 84, 84, 90, 113, 60, 2, 3.59785
434, 5, triangle, attraction, a-b-da, 9, 3, 2, 22, 195, 120, 186, 114, 120, 195, 3, 4.20795
434, 5, triangle, attraction, a-b-db, 5, 2, 2, 23, 88, 161, 90, 165, 165, 90, 3, 5.04091
434, 5, triangle, filler, NA, 999, 999, 2, 24, 176, 148, 76, 81, 156, 78, 1, 1.34628
434, 5, triangle, attraction, a-b-db, 5, 1, 2, 25, 60, 135, 135, 60, 58, 132, 2, 2.09048
434, 5, triangle, attraction, a-b-db, 14, 3, 2, 26, 111, 181, 120, 195, 195, 120, 3, 2.78263
434, 5, triangle, attraction, a-b-db, 2, 3, 2, 27, 119, 193, 195, 120, 120, 195, 3, 3.09141
434, 5, triangle, attraction, a-b-da, 2, 3, 2, 28, 193, 119, 195, 120, 120, 195, 3, 2.90719
434, 5, triangle, attraction, a-b-da, 9, 2, 2, 29, 165, 90, 157, 86, 90, 165, 3, 2.89045
434, 5, triangle, attraction, a-b-da, 5, 1, 2, 30, 60, 135, 135, 60, 132, 58, 1, 4.20039
434, 5, triangle, attraction, a-b-da, 9, 1, 2, 31, 129, 57, 60, 135, 135, 60, 2, 1.95335
434, 5, triangle, attraction, a-b-da, 14, 1, 2, 32, 60, 135, 135, 60, 125, 56, 1, 8.86268
434, 5, triangle, filler, NA, 999, 999, 2, 33, 176, 144, 60, 186, 183, 56, 1, 1.37495
434, 5, triangle, attraction, a-b-da, 2, 2, 2, 34, 165, 90, 163, 89, 90, 165, 3, 8.16229
434, 5, triangle, filler, NA, 999, 999, 3, 1, 171, 137, 141, 164, 104, 127, 1, 3.07937
434, 5, triangle, filler, NA, 999, 999, 3, 2, 109, 134, 150, 142, 144, 84, 2, 4.14279
434, 5, triangle, attraction, a-b-da, 5, 2, 3, 3, 161, 88, 165, 90, 90, 165, 3, 2.89115
434, 5, triangle, attraction, a-b-db, 9, 3, 3, 4, 120, 195, 195, 120, 114, 186, 2, 2.46699
434, 5, triangle, attraction, a-b-da, 14, 1, 3, 5, 135, 60, 60, 135, 125, 56, 2, 2.74873
434, 5, triangle, filler, NA, 999, 999, 3, 6, 81, 161, 149, 111, 187, 134, 3, 1.8083
434, 5, triangle, attraction, a-b-da, 9, 3, 3, 7, 186, 114, 195, 120, 120, 195, 3, 2.77198
434, 5, triangle, attraction, a-b-db, 5, 1, 3, 8, 58, 132, 135, 60, 60, 135, 3, 2.70165
434, 5, triangle, filler, NA, 999, 999, 3, 9, 110, 163, 80, 60, 178, 181, 3, 1.65283
434, 5, triangle, filler, NA, 999, 999, 3, 10, 136, 68, 171, 58, 101, 106, 3, 3.10109
434, 5, triangle, attraction, a-b-da, 2, 2, 3, 11, 90, 165, 165, 90, 163, 89, 1, 3.24417
434, 5, triangle, filler, NA, 999, 999, 3, 12, 133, 105, 146, 165, 76, 106, 2, 1.55238
434, 5, triangle, attraction, a-b-db, 5, 2, 3, 13, 88, 161, 165, 90, 90, 165, 2, 2.42644
434, 5, triangle, attraction, a-b-db, 5, 3, 3, 14, 120, 195, 195, 120, 117, 190, 2, 3.49161
434, 5, triangle, attraction, a-b-da, 5, 3, 3, 15, 120, 195, 190, 117, 195, 120, 1, 3.01174
434, 5, triangle, attraction, a-b-da, 14, 3, 3, 16, 195, 120, 181, 111, 120, 195, 3, 2.32621
434, 5, triangle, attraction, a-b-da, 2, 3, 3, 17, 120, 195, 195, 120, 193, 119, 1, 4.46001
434, 5, triangle, attraction, a-b-db, 2, 3, 3, 18, 120, 195, 195, 120, 119, 193, 3, 4.74159
434, 5, triangle, attraction, a-b-da, 9, 2, 3, 19, 90, 165, 165, 90, 157, 86, 2, 5.0609
434, 5, triangle, attraction, a-b-db, 9, 2, 3, 20, 90, 165, 86, 157, 165, 90, 2, 2.54142
434, 5, triangle, attraction, a-b-db, 9, 1, 3, 21, 60, 135, 135, 60, 57, 129, 2, 2.35452
434, 5, triangle, attraction, a-b-db, 14, 2, 3, 22, 90, 165, 83, 153, 165, 90, 3, 2.10135
434, 5, triangle, attraction, a-b-db, 14, 1, 3, 23, 56, 125, 60, 135, 135, 60, 2, 1.99684
434, 5, triangle, attraction, a-b-da, 9, 1, 3, 24, 135, 60, 60, 135, 129, 57, 1, 2.56619
434, 5, triangle, attraction, a-b-db, 2, 2, 3, 25, 165, 90, 90, 165, 89, 163, 1, 5.05223
434, 5, triangle, attraction, a-b-da, 2, 1, 3, 26, 135, 60, 60, 135, 134, 59, 3, 4.13187
434, 5, triangle, filler, NA, 999, 999, 3, 27, 88, 166, 78, 193, 171, 82, 1, 4.23282
434, 5, triangle, filler, NA, 999, 999, 3, 28, 127, 152, 64, 179, 169, 66, 1, 2.39529
434, 5, triangle, filler, NA, 999, 999, 3, 29, 180, 194, 156, 190, 71, 108, 1, 1.73192
434, 5, triangle, attraction, a-b-da, 5, 1, 3, 30, 135, 60, 60, 135, 132, 58, 3, 3.43404
434, 5, triangle, filler, NA, 999, 999, 3, 31, 130, 126, 65, 97, 191, 137, 3, 1.32206
434, 5, triangle, attraction, a-b-db, 14, 3, 3, 32, 111, 181, 195, 120, 120, 195, 2, 4.42435
434, 5, triangle, attraction, a-b-da, 14, 2, 3, 33, 165, 90, 90, 165, 153, 83, 2, 2.12295
434, 5, triangle, attraction, a-b-db, 2, 1, 3, 34, 60, 135, 59, 134, 135, 60, 3, 5.20286
434, 5, triangle, attraction, a-b-db, 2, 3, 4, 1, 195, 120, 120, 195, 119, 193, 2, 3.69842
434, 5, triangle, filler, NA, 999, 999, 4, 2, 156, 167, 90, 116, 117, 58, 1, 1.25994
434, 5, triangle, attraction, a-b-db, 14, 3, 4, 3, 120, 195, 195, 120, 111, 181, 2, 1.7141
434, 5, triangle, attraction, a-b-db, 9, 2, 4, 4, 90, 165, 165, 90, 86, 157, 2, 1.8491
434, 5, triangle, attraction, a-b-da, 5, 3, 4, 5, 120, 195, 195, 120, 190, 117, 2, 6.65668
434, 5, triangle, filler, NA, 999, 999, 4, 6, 184, 195, 133, 183, 155, 154, 1, 2.7291
434, 5, triangle, attraction, a-b-da, 2, 2, 4, 7, 163, 89, 165, 90, 90, 165, 3, 5.16776
434, 5, triangle, attraction, a-b-da, 9, 2, 4, 8, 90, 165, 157, 86, 165, 90, 1, 1.97855
434, 5, triangle, attraction, a-b-db, 14, 1, 4, 9, 135, 60, 60, 135, 56, 125, 2, 2.39109
434, 5, triangle, attraction, a-b-db, 2, 1, 4, 10, 59, 134, 135, 60, 60, 135, 3, 1.34017
434, 5, triangle, attraction, a-b-da, 2, 3, 4, 11, 120, 195, 195, 120, 193, 119, 1, 2.68184
434, 5, triangle, attraction, a-b-da, 14, 1, 4, 12, 60, 135, 135, 60, 125, 56, 1, 2.48852
434, 5, triangle, attraction, a-b-db, 9, 3, 4, 13, 195, 120, 114, 186, 120, 195, 3, 1.99132
434, 5, triangle, attraction, a-b-da, 14, 3, 4, 14, 181, 111, 120, 195, 195, 120, 2, 2.39278
434, 5, triangle, attraction, a-b-da, 14, 2, 4, 15, 165, 90, 153, 83, 90, 165, 3, 2.25213
434, 5, triangle, filler, NA, 999, 999, 4, 16, 182, 80, 89, 185, 165, 158, 3, 1.54284
434, 5, triangle, attraction, a-b-da, 5, 2, 4, 17, 161, 88, 90, 165, 165, 90, 2, 1.75523
434, 5, triangle, attraction, a-b-da, 2, 1, 4, 18, 60, 135, 135, 60, 134, 59, 2, 2.95934
434, 5, triangle, filler, NA, 999, 999, 4, 19, 169, 135, 57, 170, 180, 181, 3, 1.71584
434, 5, triangle, attraction, a-b-db, 2, 2, 4, 20, 89, 163, 165, 90, 90, 165, 3, 2.33978
434, 5, triangle, attraction, a-b-db, 5, 1, 4, 21, 60, 135, 135, 60, 58, 132, 3, 2.71182
434, 5, triangle, attraction, a-b-db, 9, 1, 4, 22, 60, 135, 57, 129, 135, 60, 3, 5.05315
434, 5, triangle, filler, NA, 999, 999, 4, 23, 100, 177, 169, 180, 169, 194, 3, 1.81706
434, 5, triangle, attraction, a-b-da, 9, 3, 4, 24, 186, 114, 195, 120, 120, 195, 3, 2.00056
434, 5, triangle, filler, NA, 999, 999, 4, 25, 123, 61, 67, 84, 137, 189, 3, 1.49359
434, 5, triangle, filler, NA, 999, 999, 4, 26, 159, 162, 90, 105, 77, 92, 1, 1.37072
434, 5, triangle, attraction, a-b-db, 14, 2, 4, 27, 83, 153, 90, 165, 165, 90, 2, 2.08731
434, 5, triangle, filler, NA, 999, 999, 4, 28, 124, 62, 158, 141, 148, 156, 3, 1.83867
434, 5, triangle, filler, NA, 999, 999, 4, 29, 184, 109, 186, 146, 152, 110, 2, 1.64675
434, 5, triangle, attraction, a-b-db, 5, 2, 4, 30, 90, 165, 88, 161, 165, 90, 2, 3.3462
434, 5, triangle, filler, NA, 999, 999, 4, 31, 133, 65, 119, 82, 120, 170, 3, 1.45263
434, 5, triangle, attraction, a-b-db, 5, 3, 4, 32, 117, 190, 195, 120, 120, 195, 3, 6.22975
434, 5, triangle, attraction, a-b-da, 9, 1, 4, 33, 60, 135, 129, 57, 135, 60, 1, 4.57587
434, 5, triangle, attraction, a-b-da, 5, 1, 4, 34, 132, 58, 60, 135, 135, 60, 2, 2.78758
