sub_n, computer_n, disp_cond, effect, set, distance, diag, block_n, trial_n, h1, w1, h2, w2, h3, w3, choice, rt 
235, 5, horizontal, practice, NA, 999, 999, 0, 1, 88, 76, 172, 117, 157, 76, 2, 2.49413
235, 5, horizontal, practice, NA, 999, 999, 0, 2, 95, 81, 111, 144, 90, 56, 2, 1.60848
235, 5, horizontal, practice, NA, 999, 999, 0, 3, 171, 107, 131, 193, 178, 157, 3, 3.16289
235, 5, horizontal, attraction, a-b-db, 14, 2, 1, 1, 90, 165, 165, 90, 83, 153, 1, 2.44839
235, 5, horizontal, attraction, a-b-da, 5, 3, 1, 2, 120, 195, 190, 117, 195, 120, 1, 1.94227
235, 5, horizontal, filler, NA, 999, 999, 1, 3, 147, 161, 172, 95, 115, 106, 1, 1.42862
235, 5, horizontal, filler, NA, 999, 999, 1, 4, 183, 58, 147, 185, 64, 179, 2, 1.55796
235, 5, horizontal, attraction, a-b-db, 5, 2, 1, 5, 165, 90, 90, 165, 88, 161, 2, 2.34685
235, 5, horizontal, attraction, a-b-da, 9, 1, 1, 6, 60, 135, 129, 57, 135, 60, 1, 2.19907
235, 5, horizontal, attraction, a-b-da, 14, 1, 1, 7, 60, 135, 135, 60, 125, 56, 2, 2.01131
235, 5, horizontal, attraction, a-b-da, 5, 1, 1, 8, 132, 58, 135, 60, 60, 135, 3, 2.42093
235, 5, horizontal, filler, NA, 999, 999, 1, 9, 162, 194, 102, 160, 72, 107, 1, 1.43058
235, 5, horizontal, attraction, a-b-da, 9, 2, 1, 10, 157, 86, 165, 90, 90, 165, 3, 1.98362
235, 5, horizontal, filler, NA, 999, 999, 1, 11, 114, 161, 126, 56, 132, 135, 1, 1.428
235, 5, horizontal, filler, NA, 999, 999, 1, 12, 179, 139, 89, 154, 73, 96, 1, 1.34859
235, 5, horizontal, attraction, a-b-da, 2, 1, 1, 13, 134, 59, 60, 135, 135, 60, 2, 1.65905
235, 5, horizontal, attraction, a-b-db, 9, 2, 1, 14, 165, 90, 90, 165, 86, 157, 3, 2.25886
235, 5, horizontal, attraction, a-b-db, 14, 3, 1, 15, 120, 195, 195, 120, 111, 181, 1, 1.53808
235, 5, horizontal, attraction, a-b-da, 2, 3, 1, 16, 195, 120, 120, 195, 193, 119, 2, 4.72248
235, 5, horizontal, attraction, a-b-da, 9, 3, 1, 17, 186, 114, 195, 120, 120, 195, 3, 2.09458
235, 5, horizontal, attraction, a-b-da, 5, 2, 1, 18, 165, 90, 90, 165, 161, 88, 2, 2.38443
235, 5, horizontal, attraction, a-b-db, 5, 1, 1, 19, 135, 60, 60, 135, 58, 132, 3, 2.7607
235, 5, horizontal, attraction, a-b-db, 9, 1, 1, 20, 135, 60, 57, 129, 60, 135, 3, 2.42087
235, 5, horizontal, filler, NA, 999, 999, 1, 21, 92, 149, 155, 187, 109, 180, 2, 1.72191
235, 5, horizontal, attraction, a-b-db, 14, 1, 1, 22, 135, 60, 56, 125, 60, 135, 3, 1.7333
235, 5, horizontal, attraction, a-b-db, 2, 1, 1, 23, 59, 134, 135, 60, 60, 135, 3, 3.81126
235, 5, horizontal, filler, NA, 999, 999, 1, 24, 169, 79, 91, 71, 130, 187, 3, 1.782
235, 5, horizontal, filler, NA, 999, 999, 1, 25, 105, 187, 87, 97, 144, 64, 1, 1.42371
235, 5, horizontal, attraction, a-b-da, 2, 2, 1, 26, 163, 89, 165, 90, 90, 165, 3, 2.93937
235, 5, horizontal, attraction, a-b-db, 9, 3, 1, 27, 120, 195, 195, 120, 114, 186, 1, 3.06638
235, 5, horizontal, attraction, a-b-da, 14, 3, 1, 28, 120, 195, 195, 120, 181, 111, 1, 1.37004
235, 5, horizontal, filler, NA, 999, 999, 1, 29, 144, 66, 171, 110, 172, 177, 3, 1.4462
235, 5, horizontal, attraction, a-b-db, 2, 2, 1, 30, 165, 90, 89, 163, 90, 165, 3, 2.35609
235, 5, horizontal, attraction, a-b-db, 5, 3, 1, 31, 195, 120, 117, 190, 120, 195, 3, 1.6495
235, 5, horizontal, attraction, a-b-db, 2, 3, 1, 32, 195, 120, 119, 193, 120, 195, 3, 1.72424
235, 5, horizontal, filler, NA, 999, 999, 1, 33, 142, 104, 143, 118, 134, 177, 3, 1.38445
235, 5, horizontal, attraction, a-b-da, 14, 2, 1, 34, 90, 165, 153, 83, 165, 90, 1, 2.96279
235, 5, horizontal, filler, NA, 999, 999, 2, 1, 98, 193, 135, 104, 173, 195, 3, 1.32973
235, 5, horizontal, attraction, a-b-db, 5, 1, 2, 2, 135, 60, 60, 135, 58, 132, 2, 1.66854
235, 5, horizontal, filler, NA, 999, 999, 2, 3, 182, 62, 108, 132, 137, 188, 3, 1.57225
235, 5, horizontal, filler, NA, 999, 999, 2, 4, 91, 193, 104, 132, 145, 87, 1, 1.64885
235, 5, horizontal, attraction, a-b-da, 5, 2, 2, 5, 161, 88, 165, 90, 90, 165, 3, 1.28337
235, 5, horizontal, attraction, a-b-da, 14, 3, 2, 6, 120, 195, 195, 120, 181, 111, 2, 1.25613
235, 5, horizontal, attraction, a-b-db, 14, 2, 2, 7, 83, 153, 165, 90, 90, 165, 3, 1.67598
235, 5, horizontal, attraction, a-b-db, 5, 2, 2, 8, 165, 90, 90, 165, 88, 161, 3, 2.18759
235, 5, horizontal, filler, NA, 999, 999, 2, 9, 80, 81, 125, 71, 104, 99, 3, 1.74041
235, 5, horizontal, attraction, a-b-db, 2, 1, 2, 10, 135, 60, 60, 135, 59, 134, 2, 3.76341
235, 5, horizontal, attraction, a-b-db, 2, 3, 2, 11, 119, 193, 195, 120, 120, 195, 3, 1.59002
235, 5, horizontal, attraction, a-b-da, 9, 1, 2, 12, 60, 135, 135, 60, 129, 57, 1, 1.96229
235, 5, horizontal, attraction, a-b-db, 9, 3, 2, 13, 114, 186, 120, 195, 195, 120, 2, 2.82933
235, 5, horizontal, attraction, a-b-db, 5, 3, 2, 14, 195, 120, 117, 190, 120, 195, 3, 1.58203
235, 5, horizontal, attraction, a-b-da, 9, 2, 2, 15, 90, 165, 157, 86, 165, 90, 1, 2.34633
235, 5, horizontal, attraction, a-b-da, 9, 3, 2, 16, 186, 114, 120, 195, 195, 120, 2, 1.43897
235, 5, horizontal, attraction, a-b-db, 14, 3, 2, 17, 195, 120, 120, 195, 111, 181, 2, 1.70487
235, 5, horizontal, attraction, a-b-da, 2, 1, 2, 18, 134, 59, 135, 60, 60, 135, 3, 1.46302
235, 5, horizontal, attraction, a-b-db, 9, 1, 2, 19, 57, 129, 60, 135, 135, 60, 2, 1.75349
235, 5, horizontal, attraction, a-b-da, 5, 3, 2, 20, 190, 117, 195, 120, 120, 195, 3, 1.69982
235, 5, horizontal, attraction, a-b-da, 14, 1, 2, 21, 60, 135, 125, 56, 135, 60, 1, 1.66863
235, 5, horizontal, filler, NA, 999, 999, 2, 22, 79, 67, 98, 184, 60, 64, 2, 1.53173
235, 5, horizontal, filler, NA, 999, 999, 2, 23, 127, 134, 174, 188, 123, 89, 2, 1.37586
235, 5, horizontal, filler, NA, 999, 999, 2, 24, 88, 86, 182, 60, 139, 133, 3, 1.28414
235, 5, horizontal, attraction, a-b-db, 9, 2, 2, 25, 86, 157, 165, 90, 90, 165, 3, 2.25037
235, 5, horizontal, attraction, a-b-db, 2, 2, 2, 26, 89, 163, 165, 90, 90, 165, 3, 3.03595
235, 5, horizontal, attraction, a-b-da, 14, 2, 2, 27, 90, 165, 153, 83, 165, 90, 1, 1.60474
235, 5, horizontal, filler, NA, 999, 999, 2, 28, 126, 84, 80, 162, 67, 111, 2, 2.92834
235, 5, horizontal, filler, NA, 999, 999, 2, 29, 90, 76, 93, 110, 70, 135, 2, 3.03707
235, 5, horizontal, attraction, a-b-da, 5, 1, 2, 30, 135, 60, 60, 135, 132, 58, 2, 1.5922
235, 5, horizontal, filler, NA, 999, 999, 2, 31, 85, 146, 63, 128, 185, 189, 3, 1.43493
235, 5, horizontal, attraction, a-b-da, 2, 3, 2, 32, 193, 119, 195, 120, 120, 195, 3, 4.50984
235, 5, horizontal, attraction, a-b-da, 2, 2, 2, 33, 165, 90, 90, 165, 163, 89, 2, 1.89267
235, 5, horizontal, attraction, a-b-db, 14, 1, 2, 34, 135, 60, 56, 125, 60, 135, 3, 2.56277
235, 5, horizontal, attraction, a-b-db, 5, 2, 3, 1, 165, 90, 88, 161, 90, 165, 3, 1.62804
235, 5, horizontal, attraction, a-b-db, 14, 1, 3, 2, 56, 125, 135, 60, 60, 135, 3, 1.77502
235, 5, horizontal, attraction, a-b-da, 2, 1, 3, 3, 134, 59, 135, 60, 60, 135, 3, 2.01921
235, 5, horizontal, filler, NA, 999, 999, 3, 4, 177, 179, 106, 124, 153, 152, 1, 3.60663
235, 5, horizontal, filler, NA, 999, 999, 3, 5, 121, 75, 136, 103, 83, 172, 3, 6.23939
235, 5, horizontal, attraction, a-b-db, 9, 3, 3, 6, 195, 120, 114, 186, 120, 195, 3, 1.82542
235, 5, horizontal, filler, NA, 999, 999, 3, 7, 176, 111, 150, 61, 64, 174, 1, 1.35688
235, 5, horizontal, filler, NA, 999, 999, 3, 8, 107, 173, 87, 103, 61, 116, 1, 1.29586
235, 5, horizontal, filler, NA, 999, 999, 3, 9, 148, 64, 163, 190, 66, 85, 2, 1.2723
235, 5, horizontal, attraction, a-b-da, 2, 2, 3, 10, 165, 90, 90, 165, 163, 89, 2, 1.8727
235, 5, horizontal, filler, NA, 999, 999, 3, 11, 84, 188, 173, 82, 165, 157, 3, 1.67985
235, 5, horizontal, attraction, a-b-db, 2, 2, 3, 12, 165, 90, 89, 163, 90, 165, 3, 1.83045
235, 5, horizontal, attraction, a-b-db, 5, 1, 3, 13, 58, 132, 60, 135, 135, 60, 2, 3.66366
235, 5, horizontal, attraction, a-b-da, 9, 3, 3, 14, 195, 120, 186, 114, 120, 195, 3, 2.97453
235, 5, horizontal, attraction, a-b-db, 5, 3, 3, 15, 120, 195, 117, 190, 195, 120, 1, 2.06862
235, 5, horizontal, filler, NA, 999, 999, 3, 16, 175, 71, 190, 72, 162, 61, 2, 2.53178
235, 5, horizontal, attraction, a-b-da, 14, 1, 3, 17, 135, 60, 125, 56, 60, 135, 3, 1.6582
235, 5, horizontal, filler, NA, 999, 999, 3, 18, 147, 66, 77, 186, 118, 61, 2, 1.29053
235, 5, horizontal, filler, NA, 999, 999, 3, 19, 121, 65, 82, 170, 99, 59, 2, 1.35432
235, 5, horizontal, attraction, a-b-da, 2, 3, 3, 20, 195, 120, 193, 119, 120, 195, 3, 1.31854
235, 5, horizontal, attraction, a-b-db, 9, 2, 3, 21, 165, 90, 90, 165, 86, 157, 2, 1.32482
235, 5, horizontal, filler, NA, 999, 999, 3, 22, 189, 192, 80, 120, 129, 111, 1, 1.51282
235, 5, horizontal, attraction, a-b-db, 9, 1, 3, 23, 57, 129, 60, 135, 135, 60, 2, 1.23998
235, 5, horizontal, attraction, a-b-da, 5, 2, 3, 24, 161, 88, 90, 165, 165, 90, 2, 2.64979
235, 5, horizontal, attraction, a-b-da, 14, 3, 3, 25, 181, 111, 120, 195, 195, 120, 2, 1.45654
235, 5, horizontal, attraction, a-b-da, 5, 1, 3, 26, 132, 58, 60, 135, 135, 60, 2, 2.33214
235, 5, horizontal, attraction, a-b-db, 14, 2, 3, 27, 165, 90, 83, 153, 90, 165, 3, 1.48823
235, 5, horizontal, attraction, a-b-db, 2, 1, 3, 28, 59, 134, 135, 60, 60, 135, 3, 1.63243
235, 5, horizontal, attraction, a-b-da, 5, 3, 3, 29, 195, 120, 190, 117, 120, 195, 3, 1.25629
235, 5, horizontal, attraction, a-b-db, 2, 3, 3, 30, 120, 195, 119, 193, 195, 120, 1, 1.78629
235, 5, horizontal, attraction, a-b-da, 14, 2, 3, 31, 165, 90, 153, 83, 90, 165, 3, 1.5734
235, 5, horizontal, attraction, a-b-db, 14, 3, 3, 32, 120, 195, 195, 120, 111, 181, 1, 1.55392
235, 5, horizontal, attraction, a-b-da, 9, 1, 3, 33, 135, 60, 60, 135, 129, 57, 2, 1.98149
235, 5, horizontal, attraction, a-b-da, 9, 2, 3, 34, 90, 165, 157, 86, 165, 90, 1, 2.12859
235, 5, horizontal, attraction, a-b-db, 9, 3, 4, 1, 120, 195, 114, 186, 195, 120, 1, 1.7639
235, 5, horizontal, filler, NA, 999, 999, 4, 2, 116, 184, 132, 94, 120, 109, 1, 1.40839
235, 5, horizontal, attraction, a-b-db, 14, 3, 4, 3, 111, 181, 120, 195, 195, 120, 2, 1.52568
235, 5, horizontal, attraction, a-b-da, 14, 2, 4, 4, 90, 165, 153, 83, 165, 90, 1, 2.02578
235, 5, horizontal, attraction, a-b-db, 5, 3, 4, 5, 195, 120, 120, 195, 117, 190, 3, 1.57971
235, 5, horizontal, attraction, a-b-db, 9, 1, 4, 6, 135, 60, 57, 129, 60, 135, 3, 1.72064
235, 5, horizontal, attraction, a-b-da, 9, 1, 4, 7, 135, 60, 129, 57, 60, 135, 3, 1.99164
235, 5, horizontal, attraction, a-b-db, 5, 2, 4, 8, 165, 90, 90, 165, 88, 161, 3, 1.36977
235, 5, horizontal, attraction, a-b-da, 5, 3, 4, 9, 120, 195, 190, 117, 195, 120, 1, 2.3967
235, 5, horizontal, attraction, a-b-da, 9, 3, 4, 10, 186, 114, 120, 195, 195, 120, 2, 2.9427
235, 5, horizontal, attraction, a-b-da, 14, 1, 4, 11, 125, 56, 60, 135, 135, 60, 2, 2.10973
235, 5, horizontal, attraction, a-b-db, 9, 2, 4, 12, 90, 165, 165, 90, 86, 157, 3, 1.373
235, 5, horizontal, filler, NA, 999, 999, 4, 13, 72, 132, 121, 140, 161, 83, 2, 1.16828
235, 5, horizontal, filler, NA, 999, 999, 4, 14, 88, 61, 86, 168, 139, 91, 3, 1.40484
235, 5, horizontal, filler, NA, 999, 999, 4, 15, 132, 192, 103, 127, 169, 123, 1, 1.51114
235, 5, horizontal, attraction, a-b-db, 14, 2, 4, 16, 165, 90, 90, 165, 83, 153, 2, 1.78088
235, 5, horizontal, attraction, a-b-da, 5, 1, 4, 17, 132, 58, 135, 60, 60, 135, 3, 2.15287
235, 5, horizontal, attraction, a-b-da, 9, 2, 4, 18, 157, 86, 165, 90, 90, 165, 3, 1.36498
235, 5, horizontal, attraction, a-b-db, 2, 3, 4, 19, 120, 195, 119, 193, 195, 120, 1, 1.67326
235, 5, horizontal, filler, NA, 999, 999, 4, 20, 62, 181, 78, 96, 119, 78, 1, 2.40159
235, 5, horizontal, filler, NA, 999, 999, 4, 21, 118, 88, 115, 108, 91, 177, 3, 1.49194
235, 5, horizontal, attraction, a-b-db, 5, 1, 4, 22, 135, 60, 58, 132, 60, 135, 3, 1.66627
235, 5, horizontal, filler, NA, 999, 999, 4, 23, 191, 123, 159, 187, 115, 189, 2, 1.81842
235, 5, horizontal, filler, NA, 999, 999, 4, 24, 179, 173, 192, 182, 136, 73, 2, 1.71906
235, 5, horizontal, filler, NA, 999, 999, 4, 25, 103, 73, 138, 63, 166, 116, 3, 1.27558
235, 5, horizontal, attraction, a-b-da, 14, 3, 4, 26, 195, 120, 120, 195, 181, 111, 2, 2.27567
235, 5, horizontal, attraction, a-b-da, 2, 3, 4, 27, 193, 119, 120, 195, 195, 120, 2, 2.76985
235, 5, horizontal, attraction, a-b-db, 14, 1, 4, 28, 56, 125, 135, 60, 60, 135, 3, 1.82234
235, 5, horizontal, filler, NA, 999, 999, 4, 29, 150, 78, 97, 124, 148, 68, 1, 3.88135
235, 5, horizontal, attraction, a-b-da, 5, 2, 4, 30, 165, 90, 161, 88, 90, 165, 3, 2.42662
235, 5, horizontal, attraction, a-b-db, 2, 1, 4, 31, 60, 135, 59, 134, 135, 60, 1, 3.17865
235, 5, horizontal, attraction, a-b-da, 2, 2, 4, 32, 163, 89, 165, 90, 90, 165, 3, 4.36495
235, 5, horizontal, attraction, a-b-db, 2, 2, 4, 33, 90, 165, 89, 163, 165, 90, 2, 5.17967
235, 5, horizontal, attraction, a-b-da, 2, 1, 4, 34, 60, 135, 135, 60, 134, 59, 1, 1.42255
