sub_n, computer_n, disp_cond, effect, set, distance, diag, block_n, trial_n, h1, w1, h2, w2, h3, w3, choice, rt 
184, 2, triangle, practice, NA, 999, 999, 0, 1, 146, 191, 75, 88, 149, 184, 3, 1.65316
184, 2, triangle, practice, NA, 999, 999, 0, 2, 138, 169, 94, 96, 70, 115, 1, 2.31141
184, 2, triangle, practice, NA, 999, 999, 0, 3, 104, 149, 119, 84, 74, 180, 1, 1.74091
184, 2, triangle, attraction, a-b-db, 9, 3, 1, 1, 114, 186, 195, 120, 120, 195, 3, 2.5758
184, 2, triangle, attraction, a-b-da, 9, 2, 1, 2, 157, 86, 165, 90, 90, 165, 3, 2.18509
184, 2, triangle, attraction, a-b-db, 14, 2, 1, 3, 83, 153, 165, 90, 90, 165, 3, 1.61125
184, 2, triangle, attraction, a-b-db, 2, 3, 1, 4, 195, 120, 119, 193, 120, 195, 1, 4.33472
184, 2, triangle, attraction, a-b-da, 5, 2, 1, 5, 161, 88, 90, 165, 165, 90, 2, 1.75228
184, 2, triangle, filler, NA, 999, 999, 1, 6, 183, 178, 150, 156, 180, 109, 1, 1.27031
184, 2, triangle, filler, NA, 999, 999, 1, 7, 175, 57, 189, 192, 59, 186, 2, 2.17343
184, 2, triangle, attraction, a-b-db, 9, 2, 1, 8, 86, 157, 90, 165, 165, 90, 3, 4.37065
184, 2, triangle, attraction, a-b-db, 9, 1, 1, 9, 57, 129, 135, 60, 60, 135, 3, 2.46572
184, 2, triangle, attraction, a-b-da, 2, 3, 1, 10, 195, 120, 120, 195, 193, 119, 2, 8.42554
184, 2, triangle, filler, NA, 999, 999, 1, 11, 90, 95, 110, 159, 77, 114, 2, 1.44839
184, 2, triangle, filler, NA, 999, 999, 1, 12, 59, 129, 171, 59, 137, 181, 3, 1.26733
184, 2, triangle, attraction, a-b-db, 5, 1, 1, 13, 58, 132, 135, 60, 60, 135, 3, 2.29811
184, 2, triangle, filler, NA, 999, 999, 1, 14, 179, 180, 193, 74, 178, 151, 1, 2.24891
184, 2, triangle, filler, NA, 999, 999, 1, 15, 81, 172, 161, 65, 82, 83, 1, 1.36686
184, 2, triangle, filler, NA, 999, 999, 1, 16, 56, 81, 62, 84, 142, 178, 3, 1.36271
184, 2, triangle, attraction, a-b-da, 9, 3, 1, 17, 195, 120, 120, 195, 186, 114, 2, 2.09582
184, 2, triangle, attraction, a-b-da, 5, 1, 1, 18, 60, 135, 132, 58, 135, 60, 3, 2.22083
184, 2, triangle, attraction, a-b-da, 9, 1, 1, 19, 135, 60, 129, 57, 60, 135, 3, 1.44042
184, 2, triangle, attraction, a-b-da, 2, 2, 1, 20, 90, 165, 163, 89, 165, 90, 3, 6.20944
184, 2, triangle, attraction, a-b-db, 2, 1, 1, 21, 59, 134, 60, 135, 135, 60, 2, 2.7685
184, 2, triangle, attraction, a-b-db, 5, 2, 1, 22, 90, 165, 165, 90, 88, 161, 1, 1.99711
184, 2, triangle, filler, NA, 999, 999, 1, 23, 86, 167, 112, 139, 160, 149, 3, 1.37546
184, 2, triangle, attraction, a-b-da, 14, 2, 1, 24, 165, 90, 153, 83, 90, 165, 3, 3.16933
184, 2, triangle, attraction, a-b-da, 14, 1, 1, 25, 60, 135, 135, 60, 125, 56, 1, 1.29944
184, 2, triangle, attraction, a-b-da, 2, 1, 1, 26, 134, 59, 135, 60, 60, 135, 3, 1.24424
184, 2, triangle, filler, NA, 999, 999, 1, 27, 77, 97, 139, 150, 166, 93, 2, 1.20526
184, 2, triangle, attraction, a-b-db, 14, 3, 1, 28, 111, 181, 195, 120, 120, 195, 3, 2.0222
184, 2, triangle, attraction, a-b-da, 14, 3, 1, 29, 195, 120, 120, 195, 181, 111, 1, 1.41489
184, 2, triangle, attraction, a-b-da, 5, 3, 1, 30, 195, 120, 120, 195, 190, 117, 2, 3.48836
184, 2, triangle, attraction, a-b-db, 14, 1, 1, 31, 60, 135, 135, 60, 56, 125, 1, 2.05558
184, 2, triangle, filler, NA, 999, 999, 1, 32, 87, 192, 132, 141, 167, 134, 3, 1.57401
184, 2, triangle, attraction, a-b-db, 5, 3, 1, 33, 195, 120, 120, 195, 117, 190, 3, 4.79407
184, 2, triangle, attraction, a-b-db, 2, 2, 1, 34, 89, 163, 165, 90, 90, 165, 3, 2.01067
184, 2, triangle, filler, NA, 999, 999, 2, 1, 160, 187, 135, 194, 63, 98, 1, 1.59003
184, 2, triangle, attraction, a-b-da, 9, 1, 2, 2, 135, 60, 129, 57, 60, 135, 3, 1.29871
184, 2, triangle, attraction, a-b-db, 2, 3, 2, 3, 119, 193, 120, 195, 195, 120, 2, 6.57514
184, 2, triangle, attraction, a-b-db, 9, 1, 2, 4, 57, 129, 60, 135, 135, 60, 3, 4.70704
184, 2, triangle, filler, NA, 999, 999, 2, 5, 117, 101, 69, 135, 141, 82, 1, 4.1983
184, 2, triangle, filler, NA, 999, 999, 2, 6, 72, 109, 89, 191, 188, 57, 2, 1.64899
184, 2, triangle, filler, NA, 999, 999, 2, 7, 147, 59, 78, 161, 147, 67, 2, 2.51249
184, 2, triangle, attraction, a-b-db, 2, 1, 2, 8, 59, 134, 135, 60, 60, 135, 1, 1.68391
184, 2, triangle, attraction, a-b-db, 14, 3, 2, 9, 195, 120, 111, 181, 120, 195, 3, 8.21294
184, 2, triangle, attraction, a-b-db, 5, 1, 2, 10, 60, 135, 58, 132, 135, 60, 1, 1.85222
184, 2, triangle, attraction, a-b-da, 14, 1, 2, 11, 125, 56, 135, 60, 60, 135, 3, 1.32507
184, 2, triangle, attraction, a-b-da, 2, 3, 2, 12, 193, 119, 195, 120, 120, 195, 3, 1.7691
184, 2, triangle, attraction, a-b-db, 5, 3, 2, 13, 117, 190, 120, 195, 195, 120, 3, 3.27844
184, 2, triangle, filler, NA, 999, 999, 2, 14, 123, 160, 137, 130, 186, 112, 3, 1.11607
184, 2, triangle, filler, NA, 999, 999, 2, 15, 156, 188, 67, 189, 151, 105, 1, 1.25227
184, 2, triangle, filler, NA, 999, 999, 2, 16, 134, 175, 66, 174, 69, 140, 1, 1.57266
184, 2, triangle, filler, NA, 999, 999, 2, 17, 60, 123, 66, 165, 164, 77, 3, 2.46185
184, 2, triangle, attraction, a-b-da, 9, 2, 2, 18, 165, 90, 157, 86, 90, 165, 3, 2.02935
184, 2, triangle, attraction, a-b-da, 5, 2, 2, 19, 90, 165, 165, 90, 161, 88, 1, 2.20098
184, 2, triangle, attraction, a-b-da, 9, 3, 2, 20, 186, 114, 195, 120, 120, 195, 3, 1.32041
184, 2, triangle, attraction, a-b-da, 5, 3, 2, 21, 195, 120, 120, 195, 190, 117, 2, 2.24711
184, 2, triangle, filler, NA, 999, 999, 2, 22, 128, 124, 151, 167, 69, 105, 2, 1.487
184, 2, triangle, attraction, a-b-db, 9, 3, 2, 23, 114, 186, 195, 120, 120, 195, 2, 2.19823
184, 2, triangle, attraction, a-b-db, 14, 1, 2, 24, 135, 60, 56, 125, 60, 135, 3, 3.90413
184, 2, triangle, attraction, a-b-da, 5, 1, 2, 25, 60, 135, 132, 58, 135, 60, 1, 1.38053
184, 2, triangle, attraction, a-b-da, 2, 2, 2, 26, 163, 89, 165, 90, 90, 165, 3, 1.62444
184, 2, triangle, filler, NA, 999, 999, 2, 27, 85, 131, 174, 137, 189, 62, 2, 1.51534
184, 2, triangle, attraction, a-b-da, 14, 2, 2, 28, 90, 165, 153, 83, 165, 90, 1, 1.78502
184, 2, triangle, attraction, a-b-da, 2, 1, 2, 29, 134, 59, 60, 135, 135, 60, 2, 1.71302
184, 2, triangle, attraction, a-b-da, 14, 3, 2, 30, 120, 195, 195, 120, 181, 111, 1, 2.19368
184, 2, triangle, attraction, a-b-db, 14, 2, 2, 31, 90, 165, 165, 90, 83, 153, 1, 1.60359
184, 2, triangle, attraction, a-b-db, 2, 2, 2, 32, 90, 165, 165, 90, 89, 163, 2, 4.94791
184, 2, triangle, attraction, a-b-db, 5, 2, 2, 33, 165, 90, 90, 165, 88, 161, 1, 2.45675
184, 2, triangle, attraction, a-b-db, 9, 2, 2, 34, 86, 157, 165, 90, 90, 165, 3, 1.74626
184, 2, triangle, attraction, a-b-db, 9, 1, 3, 1, 57, 129, 135, 60, 60, 135, 3, 2.71151
184, 2, triangle, attraction, a-b-da, 2, 2, 3, 2, 163, 89, 165, 90, 90, 165, 3, 1.19322
184, 2, triangle, attraction, a-b-da, 9, 2, 3, 3, 165, 90, 90, 165, 157, 86, 2, 1.27066
184, 2, triangle, attraction, a-b-db, 14, 1, 3, 4, 135, 60, 60, 135, 56, 125, 1, 2.23672
184, 2, triangle, attraction, a-b-da, 14, 2, 3, 5, 90, 165, 165, 90, 153, 83, 1, 9.51133
184, 2, triangle, attraction, a-b-da, 5, 3, 3, 6, 195, 120, 120, 195, 190, 117, 2, 1.86619
184, 2, triangle, filler, NA, 999, 999, 3, 7, 153, 106, 181, 94, 70, 136, 1, 1.56115
184, 2, triangle, filler, NA, 999, 999, 3, 8, 142, 157, 86, 84, 116, 124, 1, 2.42927
184, 2, triangle, attraction, a-b-db, 9, 3, 3, 9, 120, 195, 195, 120, 114, 186, 1, 1.95169
184, 2, triangle, attraction, a-b-da, 14, 3, 3, 10, 120, 195, 195, 120, 181, 111, 1, 1.43437
184, 2, triangle, filler, NA, 999, 999, 3, 11, 151, 151, 124, 111, 181, 161, 3, 4.72315
184, 2, triangle, attraction, a-b-db, 2, 1, 3, 12, 59, 134, 135, 60, 60, 135, 3, 2.48759
184, 2, triangle, attraction, a-b-db, 5, 2, 3, 13, 165, 90, 90, 165, 88, 161, 1, 2.04553
184, 2, triangle, filler, NA, 999, 999, 3, 14, 132, 130, 133, 155, 104, 162, 1, 1.45494
184, 2, triangle, attraction, a-b-da, 5, 1, 3, 15, 132, 58, 60, 135, 135, 60, 2, 2.30408
184, 2, triangle, attraction, a-b-da, 9, 1, 3, 16, 129, 57, 135, 60, 60, 135, 3, 1.83699
184, 2, triangle, attraction, a-b-da, 2, 1, 3, 17, 134, 59, 135, 60, 60, 135, 3, 1.58984
184, 2, triangle, filler, NA, 999, 999, 3, 18, 142, 78, 157, 60, 151, 81, 3, 1.72214
184, 2, triangle, filler, NA, 999, 999, 3, 19, 153, 59, 122, 95, 81, 134, 3, 1.5282
184, 2, triangle, filler, NA, 999, 999, 3, 20, 93, 109, 118, 76, 115, 136, 3, 1.17845
184, 2, triangle, attraction, a-b-db, 2, 3, 3, 21, 195, 120, 120, 195, 119, 193, 1, 2.79849
184, 2, triangle, attraction, a-b-db, 5, 3, 3, 22, 120, 195, 195, 120, 117, 190, 1, 2.96194
184, 2, triangle, attraction, a-b-db, 2, 2, 3, 23, 165, 90, 90, 165, 89, 163, 3, 2.3803
184, 2, triangle, attraction, a-b-da, 5, 2, 3, 24, 90, 165, 165, 90, 161, 88, 1, 2.57524
184, 2, triangle, filler, NA, 999, 999, 3, 25, 188, 112, 178, 64, 113, 85, 1, 1.52459
184, 2, triangle, attraction, a-b-da, 9, 3, 3, 26, 120, 195, 195, 120, 186, 114, 1, 5.10405
184, 2, triangle, filler, NA, 999, 999, 3, 27, 61, 188, 157, 78, 57, 82, 1, 1.90022
184, 2, triangle, attraction, a-b-db, 14, 3, 3, 28, 120, 195, 195, 120, 111, 181, 1, 1.99635
184, 2, triangle, attraction, a-b-da, 14, 1, 3, 29, 135, 60, 60, 135, 125, 56, 2, 5.1891
184, 2, triangle, attraction, a-b-db, 5, 1, 3, 30, 58, 132, 60, 135, 135, 60, 2, 2.08092
184, 2, triangle, filler, NA, 999, 999, 3, 31, 170, 194, 57, 93, 107, 71, 1, 1.28717
184, 2, triangle, attraction, a-b-db, 9, 2, 3, 32, 165, 90, 90, 165, 86, 157, 2, 1.90209
184, 2, triangle, attraction, a-b-db, 14, 2, 3, 33, 165, 90, 90, 165, 83, 153, 2, 1.37013
184, 2, triangle, attraction, a-b-da, 2, 3, 3, 34, 195, 120, 120, 195, 193, 119, 2, 3.28578
184, 2, triangle, filler, NA, 999, 999, 4, 1, 82, 83, 70, 149, 174, 148, 3, 3.19068
184, 2, triangle, attraction, a-b-db, 14, 1, 4, 2, 60, 135, 56, 125, 135, 60, 1, 1.63863
184, 2, triangle, filler, NA, 999, 999, 4, 3, 154, 155, 167, 130, 152, 154, 3, 2.22417
184, 2, triangle, filler, NA, 999, 999, 4, 4, 154, 191, 162, 116, 119, 143, 1, 1.21142
184, 2, triangle, filler, NA, 999, 999, 4, 5, 147, 56, 109, 78, 73, 167, 3, 1.43589
184, 2, triangle, attraction, a-b-da, 5, 2, 4, 6, 161, 88, 165, 90, 90, 165, 3, 1.63755
184, 2, triangle, attraction, a-b-da, 2, 2, 4, 7, 163, 89, 90, 165, 165, 90, 2, 2.15771
184, 2, triangle, filler, NA, 999, 999, 4, 8, 124, 154, 168, 119, 160, 148, 3, 1.9687
184, 2, triangle, attraction, a-b-db, 9, 1, 4, 9, 57, 129, 60, 135, 135, 60, 2, 2.30191
184, 2, triangle, attraction, a-b-da, 5, 1, 4, 10, 60, 135, 135, 60, 132, 58, 2, 2.06562
184, 2, triangle, attraction, a-b-db, 5, 1, 4, 11, 58, 132, 135, 60, 60, 135, 3, 4.18416
184, 2, triangle, attraction, a-b-da, 2, 1, 4, 12, 134, 59, 135, 60, 60, 135, 3, 1.48393
184, 2, triangle, attraction, a-b-da, 14, 3, 4, 13, 195, 120, 181, 111, 120, 195, 3, 1.78105
184, 2, triangle, attraction, a-b-db, 9, 2, 4, 14, 90, 165, 165, 90, 86, 157, 3, 2.65412
184, 2, triangle, attraction, a-b-db, 14, 3, 4, 15, 111, 181, 195, 120, 120, 195, 3, 1.47691
184, 2, triangle, attraction, a-b-da, 14, 1, 4, 16, 125, 56, 60, 135, 135, 60, 3, 2.27751
184, 2, triangle, attraction, a-b-db, 2, 2, 4, 17, 165, 90, 90, 165, 89, 163, 1, 2.89182
184, 2, triangle, attraction, a-b-da, 9, 3, 4, 18, 120, 195, 186, 114, 195, 120, 1, 2.65047
184, 2, triangle, filler, NA, 999, 999, 4, 19, 117, 114, 155, 70, 132, 57, 1, 1.21807
184, 2, triangle, attraction, a-b-da, 2, 3, 4, 20, 193, 119, 195, 120, 120, 195, 3, 4.77408
184, 2, triangle, attraction, a-b-da, 5, 3, 4, 21, 195, 120, 120, 195, 190, 117, 1, 2.03723
184, 2, triangle, attraction, a-b-db, 9, 3, 4, 22, 114, 186, 195, 120, 120, 195, 3, 1.23799
184, 2, triangle, filler, NA, 999, 999, 4, 23, 119, 175, 188, 144, 124, 159, 2, 3.30612
184, 2, triangle, filler, NA, 999, 999, 4, 24, 168, 114, 57, 151, 140, 112, 1, 1.68539
184, 2, triangle, filler, NA, 999, 999, 4, 25, 123, 134, 173, 60, 112, 193, 3, 1.33202
184, 2, triangle, attraction, a-b-db, 2, 1, 4, 26, 59, 134, 135, 60, 60, 135, 3, 5.40024
184, 2, triangle, attraction, a-b-db, 2, 3, 4, 27, 119, 193, 195, 120, 120, 195, 3, 1.44922
184, 2, triangle, attraction, a-b-da, 9, 2, 4, 28, 157, 86, 90, 165, 165, 90, 2, 1.45803
184, 2, triangle, attraction, a-b-da, 14, 2, 4, 29, 90, 165, 153, 83, 165, 90, 3, 1.20836
184, 2, triangle, attraction, a-b-db, 5, 2, 4, 30, 90, 165, 88, 161, 165, 90, 3, 1.38046
184, 2, triangle, attraction, a-b-db, 14, 2, 4, 31, 83, 153, 165, 90, 90, 165, 2, 1.06417
184, 2, triangle, attraction, a-b-da, 9, 1, 4, 32, 60, 135, 135, 60, 129, 57, 1, 1.63951
184, 2, triangle, attraction, a-b-db, 5, 3, 4, 33, 117, 190, 120, 195, 195, 120, 2, 1.84005
184, 2, triangle, filler, NA, 999, 999, 4, 34, 106, 194, 158, 173, 177, 87, 2, 1.45808
