sub_n, computer_n, disp_cond, effect, set, distance, diag, block_n, trial_n, h1, w1, h2, w2, h3, w3, choice, rt 
286, 5, triangle, practice, NA, 999, 999, 0, 1, 75, 85, 168, 78, 169, 186, 3, 1.63308
286, 5, triangle, practice, NA, 999, 999, 0, 2, 139, 117, 157, 88, 145, 182, 3, 3.43565
286, 5, triangle, practice, NA, 999, 999, 0, 3, 162, 58, 100, 99, 123, 186, 3, 1.95811
286, 5, triangle, attraction, a-b-db, 2, 1, 1, 1, 135, 60, 59, 134, 60, 135, 1, 4.28014
286, 5, triangle, attraction, a-b-da, 2, 3, 1, 2, 195, 120, 120, 195, 193, 119, 2, 2.88082
286, 5, triangle, attraction, a-b-da, 9, 1, 1, 3, 129, 57, 135, 60, 60, 135, 3, 3.62322
286, 5, triangle, attraction, a-b-da, 9, 3, 1, 4, 195, 120, 186, 114, 120, 195, 3, 1.8971
286, 5, triangle, filler, NA, 999, 999, 1, 5, 161, 98, 58, 112, 156, 102, 1, 1.24008
286, 5, triangle, filler, NA, 999, 999, 1, 6, 148, 173, 172, 69, 126, 138, 1, 2.12139
286, 5, triangle, attraction, a-b-db, 5, 1, 1, 7, 135, 60, 58, 132, 60, 135, 1, 2.43937
286, 5, triangle, attraction, a-b-da, 2, 2, 1, 8, 163, 89, 165, 90, 90, 165, 2, 4.2474
286, 5, triangle, attraction, a-b-db, 9, 2, 1, 9, 165, 90, 90, 165, 86, 157, 3, 3.04032
286, 5, triangle, filler, NA, 999, 999, 1, 10, 92, 61, 71, 175, 138, 173, 3, 1.8022
286, 5, triangle, filler, NA, 999, 999, 1, 11, 78, 59, 67, 94, 77, 170, 3, 3.10219
286, 5, triangle, attraction, a-b-db, 2, 3, 1, 12, 119, 193, 120, 195, 195, 120, 2, 5.56446
286, 5, triangle, filler, NA, 999, 999, 1, 13, 92, 58, 114, 115, 171, 74, 2, 7.23114
286, 5, triangle, attraction, a-b-da, 14, 3, 1, 14, 120, 195, 181, 111, 195, 120, 3, 1.80096
286, 5, triangle, attraction, a-b-da, 5, 1, 1, 15, 60, 135, 135, 60, 132, 58, 1, 7.61493
286, 5, triangle, attraction, a-b-da, 5, 3, 1, 16, 190, 117, 195, 120, 120, 195, 3, 1.61344
286, 5, triangle, attraction, a-b-da, 14, 1, 1, 17, 125, 56, 60, 135, 135, 60, 2, 2.35428
286, 5, triangle, attraction, a-b-db, 2, 2, 1, 18, 90, 165, 89, 163, 165, 90, 3, 2.33214
286, 5, triangle, attraction, a-b-da, 14, 2, 1, 19, 153, 83, 90, 165, 165, 90, 3, 3.00291
286, 5, triangle, attraction, a-b-da, 2, 1, 1, 20, 135, 60, 60, 135, 134, 59, 3, 2.23032
286, 5, triangle, filler, NA, 999, 999, 1, 21, 74, 87, 63, 147, 100, 135, 3, 1.83098
286, 5, triangle, attraction, a-b-db, 5, 3, 1, 22, 120, 195, 117, 190, 195, 120, 3, 1.96873
286, 5, triangle, attraction, a-b-db, 14, 2, 1, 23, 165, 90, 90, 165, 83, 153, 1, 1.64515
286, 5, triangle, attraction, a-b-db, 9, 1, 1, 24, 135, 60, 60, 135, 57, 129, 1, 2.02936
286, 5, triangle, filler, NA, 999, 999, 1, 25, 141, 66, 168, 61, 118, 189, 3, 1.73549
286, 5, triangle, filler, NA, 999, 999, 1, 26, 107, 175, 119, 105, 57, 191, 1, 2.52546
286, 5, triangle, attraction, a-b-db, 9, 3, 1, 27, 120, 195, 114, 186, 195, 120, 3, 3.70742
286, 5, triangle, attraction, a-b-db, 5, 2, 1, 28, 90, 165, 165, 90, 88, 161, 2, 3.03258
286, 5, triangle, attraction, a-b-da, 5, 2, 1, 29, 161, 88, 90, 165, 165, 90, 2, 2.52062
286, 5, triangle, attraction, a-b-db, 14, 1, 1, 30, 135, 60, 60, 135, 56, 125, 2, 6.35891
286, 5, triangle, attraction, a-b-db, 14, 3, 1, 31, 120, 195, 195, 120, 111, 181, 2, 2.32423
286, 5, triangle, filler, NA, 999, 999, 1, 32, 190, 170, 64, 99, 139, 187, 1, 1.4922
286, 5, triangle, attraction, a-b-da, 9, 2, 1, 33, 157, 86, 165, 90, 90, 165, 2, 3.34676
286, 5, triangle, filler, NA, 999, 999, 1, 34, 165, 97, 187, 150, 176, 186, 3, 5.25513
286, 5, triangle, attraction, a-b-db, 9, 1, 2, 1, 135, 60, 57, 129, 60, 135, 1, 3.03184
286, 5, triangle, attraction, a-b-da, 5, 3, 2, 2, 195, 120, 120, 195, 190, 117, 1, 3.59949
286, 5, triangle, filler, NA, 999, 999, 2, 3, 135, 134, 115, 153, 126, 62, 2, 1.78633
286, 5, triangle, attraction, a-b-da, 5, 2, 2, 4, 165, 90, 161, 88, 90, 165, 3, 2.96836
286, 5, triangle, filler, NA, 999, 999, 2, 5, 192, 83, 92, 97, 102, 85, 1, 2.50625
286, 5, triangle, filler, NA, 999, 999, 2, 6, 77, 191, 132, 59, 120, 58, 1, 1.87291
286, 5, triangle, attraction, a-b-db, 5, 1, 2, 7, 60, 135, 58, 132, 135, 60, 3, 2.08873
286, 5, triangle, attraction, a-b-da, 9, 2, 2, 8, 90, 165, 157, 86, 165, 90, 1, 5.18482
286, 5, triangle, attraction, a-b-da, 2, 2, 2, 9, 165, 90, 90, 165, 163, 89, 2, 1.75414
286, 5, triangle, attraction, a-b-db, 5, 2, 2, 10, 165, 90, 90, 165, 88, 161, 2, 2.99125
286, 5, triangle, filler, NA, 999, 999, 2, 11, 143, 77, 95, 185, 187, 156, 3, 1.33131
286, 5, triangle, attraction, a-b-da, 2, 3, 2, 12, 120, 195, 193, 119, 195, 120, 1, 2.93612
286, 5, triangle, attraction, a-b-db, 5, 3, 2, 13, 120, 195, 117, 190, 195, 120, 3, 3.66289
286, 5, triangle, attraction, a-b-da, 2, 1, 2, 14, 60, 135, 134, 59, 135, 60, 3, 6.45401
286, 5, triangle, filler, NA, 999, 999, 2, 15, 162, 159, 64, 97, 116, 69, 1, 1.40908
286, 5, triangle, attraction, a-b-db, 2, 3, 2, 16, 195, 120, 120, 195, 119, 193, 1, 3.62645
286, 5, triangle, attraction, a-b-da, 9, 1, 2, 17, 60, 135, 129, 57, 135, 60, 1, 3.01114
286, 5, triangle, filler, NA, 999, 999, 2, 18, 105, 154, 82, 151, 139, 77, 1, 1.36932
286, 5, triangle, attraction, a-b-da, 14, 3, 2, 19, 195, 120, 181, 111, 120, 195, 3, 5.8428
286, 5, triangle, filler, NA, 999, 999, 2, 20, 118, 114, 149, 164, 180, 82, 2, 1.28286
286, 5, triangle, attraction, a-b-db, 14, 3, 2, 21, 111, 181, 195, 120, 120, 195, 2, 2.53713
286, 5, triangle, attraction, a-b-da, 5, 1, 2, 22, 135, 60, 132, 58, 60, 135, 1, 3.7228
286, 5, triangle, attraction, a-b-db, 14, 2, 2, 23, 165, 90, 83, 153, 90, 165, 3, 2.00464
286, 5, triangle, filler, NA, 999, 999, 2, 24, 111, 62, 126, 129, 133, 186, 3, 1.36204
286, 5, triangle, filler, NA, 999, 999, 2, 25, 152, 152, 183, 82, 97, 171, 1, 2.02105
286, 5, triangle, attraction, a-b-db, 2, 1, 2, 26, 135, 60, 59, 134, 60, 135, 1, 2.43782
286, 5, triangle, attraction, a-b-db, 14, 1, 2, 27, 60, 135, 135, 60, 56, 125, 2, 1.85774
286, 5, triangle, attraction, a-b-db, 9, 3, 2, 28, 120, 195, 195, 120, 114, 186, 2, 1.94609
286, 5, triangle, filler, NA, 999, 999, 2, 29, 67, 138, 71, 96, 155, 76, 3, 2.13458
286, 5, triangle, attraction, a-b-db, 9, 2, 2, 30, 90, 165, 165, 90, 86, 157, 2, 1.51668
286, 5, triangle, attraction, a-b-db, 2, 2, 2, 31, 89, 163, 90, 165, 165, 90, 2, 2.85027
286, 5, triangle, attraction, a-b-da, 9, 3, 2, 32, 195, 120, 120, 195, 186, 114, 2, 1.95485
286, 5, triangle, attraction, a-b-da, 14, 1, 2, 33, 125, 56, 135, 60, 60, 135, 2, 3.44673
286, 5, triangle, attraction, a-b-da, 14, 2, 2, 34, 165, 90, 90, 165, 153, 83, 1, 7.58348
286, 5, triangle, filler, NA, 999, 999, 3, 1, 173, 81, 159, 146, 141, 156, 2, 1.72258
286, 5, triangle, attraction, a-b-da, 14, 1, 3, 2, 125, 56, 60, 135, 135, 60, 3, 2.07963
286, 5, triangle, attraction, a-b-da, 9, 2, 3, 3, 157, 86, 165, 90, 90, 165, 2, 2.36622
286, 5, triangle, attraction, a-b-da, 5, 2, 3, 4, 165, 90, 161, 88, 90, 165, 3, 3.30637
286, 5, triangle, filler, NA, 999, 999, 3, 5, 135, 194, 77, 158, 84, 89, 1, 1.20938
286, 5, triangle, attraction, a-b-da, 2, 3, 3, 6, 195, 120, 193, 119, 120, 195, 1, 8.06702
286, 5, triangle, attraction, a-b-db, 2, 3, 3, 7, 120, 195, 119, 193, 195, 120, 3, 3.62891
286, 5, triangle, attraction, a-b-db, 14, 1, 3, 8, 135, 60, 56, 125, 60, 135, 1, 2.23754
286, 5, triangle, attraction, a-b-da, 14, 3, 3, 9, 120, 195, 181, 111, 195, 120, 3, 1.53549
286, 5, triangle, filler, NA, 999, 999, 3, 10, 187, 75, 168, 74, 181, 66, 2, 2.15654
286, 5, triangle, attraction, a-b-da, 9, 1, 3, 11, 60, 135, 129, 57, 135, 60, 2, 2.97747
286, 5, triangle, attraction, a-b-db, 9, 2, 3, 12, 165, 90, 90, 165, 86, 157, 1, 1.70957
286, 5, triangle, attraction, a-b-db, 9, 1, 3, 13, 60, 135, 135, 60, 57, 129, 2, 2.04562
286, 5, triangle, attraction, a-b-da, 2, 2, 3, 14, 163, 89, 90, 165, 165, 90, 2, 1.94009
286, 5, triangle, attraction, a-b-da, 9, 3, 3, 15, 195, 120, 186, 114, 120, 195, 1, 3.6102
286, 5, triangle, attraction, a-b-db, 14, 2, 3, 16, 165, 90, 90, 165, 83, 153, 2, 2.98067
286, 5, triangle, attraction, a-b-da, 5, 1, 3, 17, 132, 58, 135, 60, 60, 135, 3, 1.6563
286, 5, triangle, attraction, a-b-da, 2, 1, 3, 18, 60, 135, 134, 59, 135, 60, 2, 1.75988
286, 5, triangle, attraction, a-b-db, 5, 3, 3, 19, 117, 190, 195, 120, 120, 195, 2, 2.01489
286, 5, triangle, filler, NA, 999, 999, 3, 20, 90, 184, 95, 68, 87, 146, 1, 1.39401
286, 5, triangle, attraction, a-b-db, 5, 1, 3, 21, 58, 132, 60, 135, 135, 60, 2, 2.18686
286, 5, triangle, filler, NA, 999, 999, 3, 22, 162, 64, 182, 184, 142, 183, 2, 1.22118
286, 5, triangle, filler, NA, 999, 999, 3, 23, 110, 167, 186, 134, 133, 82, 2, 1.40701
286, 5, triangle, attraction, a-b-db, 2, 1, 3, 24, 135, 60, 59, 134, 60, 135, 1, 2.95473
286, 5, triangle, attraction, a-b-da, 5, 3, 3, 25, 120, 195, 195, 120, 190, 117, 1, 3.60715
286, 5, triangle, attraction, a-b-db, 9, 3, 3, 26, 120, 195, 114, 186, 195, 120, 3, 2.13965
286, 5, triangle, attraction, a-b-db, 2, 2, 3, 27, 90, 165, 89, 163, 165, 90, 3, 2.07281
286, 5, triangle, attraction, a-b-db, 14, 3, 3, 28, 120, 195, 111, 181, 195, 120, 3, 1.72916
286, 5, triangle, filler, NA, 999, 999, 3, 29, 120, 56, 158, 125, 123, 67, 2, 1.22747
286, 5, triangle, filler, NA, 999, 999, 3, 30, 79, 69, 195, 70, 76, 167, 2, 3.47177
286, 5, triangle, attraction, a-b-db, 5, 2, 3, 31, 165, 90, 88, 161, 90, 165, 1, 2.12591
286, 5, triangle, filler, NA, 999, 999, 3, 32, 165, 135, 114, 85, 156, 108, 1, 1.35555
286, 5, triangle, filler, NA, 999, 999, 3, 33, 186, 120, 152, 110, 191, 128, 3, 1.55356
286, 5, triangle, attraction, a-b-da, 14, 2, 3, 34, 165, 90, 90, 165, 153, 83, 2, 1.87838
286, 5, triangle, attraction, a-b-da, 2, 3, 4, 1, 195, 120, 193, 119, 120, 195, 2, 1.57358
286, 5, triangle, attraction, a-b-da, 2, 2, 4, 2, 163, 89, 165, 90, 90, 165, 2, 2.39206
286, 5, triangle, attraction, a-b-da, 5, 3, 4, 3, 190, 117, 195, 120, 120, 195, 2, 1.7087
286, 5, triangle, attraction, a-b-db, 5, 2, 4, 4, 90, 165, 165, 90, 88, 161, 2, 1.62882
286, 5, triangle, attraction, a-b-db, 2, 3, 4, 5, 195, 120, 120, 195, 119, 193, 2, 2.02964
286, 5, triangle, filler, NA, 999, 999, 4, 6, 141, 72, 107, 138, 157, 133, 3, 3.17475
286, 5, triangle, attraction, a-b-db, 9, 1, 4, 7, 60, 135, 57, 129, 135, 60, 1, 1.65927
286, 5, triangle, attraction, a-b-db, 2, 2, 4, 8, 165, 90, 90, 165, 89, 163, 2, 1.18659
286, 5, triangle, attraction, a-b-da, 9, 2, 4, 9, 90, 165, 157, 86, 165, 90, 1, 1.73654
286, 5, triangle, attraction, a-b-db, 9, 2, 4, 10, 90, 165, 86, 157, 165, 90, 3, 2.86002
286, 5, triangle, filler, NA, 999, 999, 4, 11, 80, 140, 93, 113, 71, 123, 1, 8.38862
286, 5, triangle, attraction, a-b-da, 14, 2, 4, 12, 153, 83, 165, 90, 90, 165, 2, 4.2226
286, 5, triangle, attraction, a-b-da, 9, 1, 4, 13, 60, 135, 135, 60, 129, 57, 1, 2.37029
286, 5, triangle, attraction, a-b-da, 5, 1, 4, 14, 132, 58, 60, 135, 135, 60, 1, 2.96669
286, 5, triangle, attraction, a-b-db, 14, 2, 4, 15, 165, 90, 90, 165, 83, 153, 2, 4.90491
286, 5, triangle, attraction, a-b-db, 14, 3, 4, 16, 195, 120, 111, 181, 120, 195, 3, 4.24125
286, 5, triangle, attraction, a-b-db, 5, 1, 4, 17, 58, 132, 135, 60, 60, 135, 2, 1.48309
286, 5, triangle, attraction, a-b-da, 9, 3, 4, 18, 120, 195, 186, 114, 195, 120, 3, 3.37762
286, 5, triangle, attraction, a-b-db, 14, 1, 4, 19, 60, 135, 135, 60, 56, 125, 2, 1.89265
286, 5, triangle, filler, NA, 999, 999, 4, 20, 191, 80, 148, 138, 92, 114, 2, 2.85872
286, 5, triangle, filler, NA, 999, 999, 4, 21, 157, 145, 155, 90, 80, 154, 1, 1.27628
286, 5, triangle, attraction, a-b-da, 5, 2, 4, 22, 165, 90, 161, 88, 90, 165, 3, 5.10934
286, 5, triangle, filler, NA, 999, 999, 4, 23, 119, 65, 113, 181, 86, 102, 2, 1.28199
286, 5, triangle, attraction, a-b-da, 14, 1, 4, 24, 135, 60, 125, 56, 60, 135, 1, 3.27422
286, 5, triangle, attraction, a-b-db, 2, 1, 4, 25, 60, 135, 59, 134, 135, 60, 2, 2.21195
286, 5, triangle, attraction, a-b-db, 5, 3, 4, 26, 120, 195, 195, 120, 117, 190, 2, 1.2689
286, 5, triangle, filler, NA, 999, 999, 4, 27, 95, 71, 121, 123, 93, 163, 2, 2.54996
286, 5, triangle, filler, NA, 999, 999, 4, 28, 60, 159, 185, 181, 85, 119, 2, 1.2886
286, 5, triangle, filler, NA, 999, 999, 4, 29, 76, 150, 68, 182, 94, 104, 2, 3.50427
286, 5, triangle, attraction, a-b-da, 2, 1, 4, 30, 134, 59, 60, 135, 135, 60, 3, 5.91347
286, 5, triangle, filler, NA, 999, 999, 4, 31, 163, 190, 118, 100, 176, 185, 3, 2.24477
286, 5, triangle, attraction, a-b-da, 14, 3, 4, 32, 120, 195, 181, 111, 195, 120, 3, 3.39127
286, 5, triangle, filler, NA, 999, 999, 4, 33, 139, 137, 195, 62, 64, 145, 1, 3.8735
286, 5, triangle, attraction, a-b-db, 9, 3, 4, 34, 120, 195, 195, 120, 114, 186, 2, 4.86543
