sub_n, computer_n, disp_cond, effect, set, distance, diag, block_n, trial_n, h1, w1, h2, w2, h3, w3, choice, rt 
222, 1, triangle, practice, NA, 999, 999, 0, 1, 132, 178, 191, 68, 122, 56, 1, 2.07361
222, 1, triangle, practice, NA, 999, 999, 0, 2, 112, 159, 146, 103, 177, 127, 3, 4.03444
222, 1, triangle, practice, NA, 999, 999, 0, 3, 182, 178, 71, 176, 174, 160, 1, 1.75286
222, 1, triangle, attraction, a-b-da, 9, 2, 1, 1, 157, 86, 165, 90, 90, 165, 3, 2.14296
222, 1, triangle, attraction, a-b-db, 9, 3, 1, 2, 114, 186, 195, 120, 120, 195, 3, 2.35435
222, 1, triangle, attraction, a-b-da, 5, 1, 1, 3, 60, 135, 135, 60, 132, 58, 1, 2.11628
222, 1, triangle, attraction, a-b-db, 14, 2, 1, 4, 90, 165, 83, 153, 165, 90, 1, 1.64475
222, 1, triangle, filler, NA, 999, 999, 1, 5, 113, 80, 186, 132, 100, 134, 2, 1.34921
222, 1, triangle, attraction, a-b-da, 2, 1, 1, 6, 135, 60, 60, 135, 134, 59, 1, 3.22404
222, 1, triangle, filler, NA, 999, 999, 1, 7, 159, 98, 97, 78, 178, 101, 3, 1.78434
222, 1, triangle, attraction, a-b-db, 5, 3, 1, 8, 120, 195, 195, 120, 117, 190, 1, 3.22682
222, 1, triangle, attraction, a-b-da, 14, 2, 1, 9, 153, 83, 165, 90, 90, 165, 3, 1.74812
222, 1, triangle, attraction, a-b-da, 14, 1, 1, 10, 60, 135, 135, 60, 125, 56, 1, 1.81615
222, 1, triangle, attraction, a-b-db, 2, 2, 1, 11, 90, 165, 165, 90, 89, 163, 1, 1.73853
222, 1, triangle, attraction, a-b-db, 2, 3, 1, 12, 120, 195, 195, 120, 119, 193, 3, 4.09392
222, 1, triangle, attraction, a-b-da, 5, 2, 1, 13, 90, 165, 165, 90, 161, 88, 2, 2.55121
222, 1, triangle, filler, NA, 999, 999, 1, 14, 167, 60, 156, 173, 154, 70, 2, 1.58621
222, 1, triangle, filler, NA, 999, 999, 1, 15, 92, 135, 123, 169, 102, 156, 2, 1.39583
222, 1, triangle, filler, NA, 999, 999, 1, 16, 104, 81, 67, 74, 192, 139, 3, 1.17407
222, 1, triangle, attraction, a-b-db, 14, 3, 1, 17, 111, 181, 120, 195, 195, 120, 2, 1.57
222, 1, triangle, attraction, a-b-da, 5, 3, 1, 18, 195, 120, 120, 195, 190, 117, 1, 1.42874
222, 1, triangle, attraction, a-b-db, 5, 1, 1, 19, 135, 60, 58, 132, 60, 135, 1, 2.08082
222, 1, triangle, filler, NA, 999, 999, 1, 20, 103, 132, 101, 111, 153, 98, 1, 3.59818
222, 1, triangle, attraction, a-b-db, 5, 2, 1, 21, 165, 90, 90, 165, 88, 161, 2, 2.45709
222, 1, triangle, filler, NA, 999, 999, 1, 22, 77, 112, 125, 147, 144, 194, 3, 1.43867
222, 1, triangle, attraction, a-b-da, 2, 2, 1, 23, 165, 90, 90, 165, 163, 89, 3, 3.90551
222, 1, triangle, attraction, a-b-db, 9, 2, 1, 24, 90, 165, 86, 157, 165, 90, 3, 2.34341
222, 1, triangle, attraction, a-b-da, 14, 3, 1, 25, 120, 195, 195, 120, 181, 111, 1, 2.95506
222, 1, triangle, attraction, a-b-da, 2, 3, 1, 26, 120, 195, 193, 119, 195, 120, 3, 1.59834
222, 1, triangle, filler, NA, 999, 999, 1, 27, 89, 90, 68, 192, 66, 146, 2, 3.77677
222, 1, triangle, attraction, a-b-db, 9, 1, 1, 28, 60, 135, 57, 129, 135, 60, 1, 3.13386
222, 1, triangle, attraction, a-b-da, 9, 1, 1, 29, 129, 57, 135, 60, 60, 135, 3, 1.9441
222, 1, triangle, filler, NA, 999, 999, 1, 30, 188, 103, 164, 98, 96, 161, 1, 1.48442
222, 1, triangle, attraction, a-b-db, 14, 1, 1, 31, 56, 125, 135, 60, 60, 135, 3, 1.58178
222, 1, triangle, filler, NA, 999, 999, 1, 32, 80, 78, 131, 173, 106, 140, 2, 1.80611
222, 1, triangle, attraction, a-b-da, 9, 3, 1, 33, 120, 195, 195, 120, 186, 114, 1, 1.49604
222, 1, triangle, attraction, a-b-db, 2, 1, 1, 34, 59, 134, 60, 135, 135, 60, 2, 2.07252
222, 1, triangle, attraction, a-b-da, 5, 3, 2, 1, 195, 120, 190, 117, 120, 195, 3, 4.63093
222, 1, triangle, attraction, a-b-da, 9, 1, 2, 2, 135, 60, 60, 135, 129, 57, 1, 1.91062
222, 1, triangle, filler, NA, 999, 999, 2, 3, 168, 66, 126, 109, 67, 130, 2, 2.23839
222, 1, triangle, attraction, a-b-da, 9, 2, 2, 4, 157, 86, 90, 165, 165, 90, 3, 3.57311
222, 1, triangle, attraction, a-b-db, 9, 1, 2, 5, 135, 60, 60, 135, 57, 129, 1, 3.63196
222, 1, triangle, attraction, a-b-db, 9, 2, 2, 6, 90, 165, 165, 90, 86, 157, 1, 1.84962
222, 1, triangle, attraction, a-b-da, 5, 1, 2, 7, 132, 58, 60, 135, 135, 60, 3, 2.86561
222, 1, triangle, attraction, a-b-da, 5, 2, 2, 8, 90, 165, 161, 88, 165, 90, 3, 1.68808
222, 1, triangle, attraction, a-b-db, 5, 2, 2, 9, 165, 90, 88, 161, 90, 165, 1, 1.75035
222, 1, triangle, attraction, a-b-db, 2, 2, 2, 10, 89, 163, 165, 90, 90, 165, 3, 12.0172
222, 1, triangle, filler, NA, 999, 999, 2, 11, 67, 138, 64, 117, 69, 86, 1, 1.43412
222, 1, triangle, filler, NA, 999, 999, 2, 12, 77, 169, 65, 59, 150, 148, 3, 2.64092
222, 1, triangle, attraction, a-b-db, 9, 3, 2, 13, 120, 195, 195, 120, 114, 186, 2, 3.29079
222, 1, triangle, attraction, a-b-da, 14, 1, 2, 14, 60, 135, 125, 56, 135, 60, 3, 1.77942
222, 1, triangle, attraction, a-b-db, 2, 1, 2, 15, 59, 134, 60, 135, 135, 60, 1, 1.93087
222, 1, triangle, attraction, a-b-da, 14, 3, 2, 16, 195, 120, 120, 195, 181, 111, 1, 1.8484
222, 1, triangle, filler, NA, 999, 999, 2, 17, 127, 131, 155, 98, 153, 70, 1, 2.23384
222, 1, triangle, filler, NA, 999, 999, 2, 18, 175, 95, 81, 194, 132, 166, 3, 1.44371
222, 1, triangle, filler, NA, 999, 999, 2, 19, 131, 97, 78, 151, 170, 164, 3, 1.34063
222, 1, triangle, attraction, a-b-db, 14, 1, 2, 20, 60, 135, 135, 60, 56, 125, 1, 2.03321
222, 1, triangle, attraction, a-b-da, 2, 1, 2, 21, 60, 135, 134, 59, 135, 60, 3, 1.32225
222, 1, triangle, filler, NA, 999, 999, 2, 22, 64, 80, 66, 82, 119, 85, 3, 1.60738
222, 1, triangle, attraction, a-b-da, 2, 2, 2, 23, 90, 165, 163, 89, 165, 90, 3, 2.44276
222, 1, triangle, attraction, a-b-db, 5, 1, 2, 24, 60, 135, 135, 60, 58, 132, 1, 2.43403
222, 1, triangle, attraction, a-b-da, 14, 2, 2, 25, 165, 90, 90, 165, 153, 83, 1, 1.977
222, 1, triangle, attraction, a-b-da, 2, 3, 2, 26, 195, 120, 193, 119, 120, 195, 1, 1.35617
222, 1, triangle, filler, NA, 999, 999, 2, 27, 98, 76, 181, 164, 114, 88, 2, 1.51166
222, 1, triangle, attraction, a-b-db, 14, 3, 2, 28, 111, 181, 120, 195, 195, 120, 3, 1.56053
222, 1, triangle, attraction, a-b-db, 14, 2, 2, 29, 83, 153, 90, 165, 165, 90, 3, 2.11467
222, 1, triangle, filler, NA, 999, 999, 2, 30, 60, 136, 138, 119, 57, 145, 2, 2.09597
222, 1, triangle, attraction, a-b-db, 2, 3, 2, 31, 120, 195, 119, 193, 195, 120, 3, 1.63996
222, 1, triangle, attraction, a-b-da, 9, 3, 2, 32, 195, 120, 186, 114, 120, 195, 3, 1.82375
222, 1, triangle, attraction, a-b-db, 5, 3, 2, 33, 195, 120, 117, 190, 120, 195, 1, 1.50581
222, 1, triangle, filler, NA, 999, 999, 2, 34, 123, 118, 179, 111, 155, 143, 3, 1.17559
222, 1, triangle, attraction, a-b-da, 5, 3, 3, 1, 195, 120, 120, 195, 190, 117, 2, 1.86618
222, 1, triangle, attraction, a-b-da, 14, 3, 3, 2, 181, 111, 120, 195, 195, 120, 2, 1.68106
222, 1, triangle, attraction, a-b-da, 14, 2, 3, 3, 90, 165, 153, 83, 165, 90, 3, 1.464
222, 1, triangle, attraction, a-b-db, 5, 1, 3, 4, 60, 135, 135, 60, 58, 132, 1, 1.8081
222, 1, triangle, attraction, a-b-da, 9, 1, 3, 5, 60, 135, 135, 60, 129, 57, 3, 3.81098
222, 1, triangle, attraction, a-b-db, 9, 3, 3, 6, 195, 120, 114, 186, 120, 195, 3, 6.65243
222, 1, triangle, filler, NA, 999, 999, 3, 7, 83, 119, 114, 69, 72, 79, 1, 1.70032
222, 1, triangle, attraction, a-b-db, 9, 1, 3, 8, 135, 60, 57, 129, 60, 135, 3, 1.76218
222, 1, triangle, attraction, a-b-da, 2, 2, 3, 9, 163, 89, 165, 90, 90, 165, 3, 1.39017
222, 1, triangle, attraction, a-b-da, 2, 3, 3, 10, 193, 119, 195, 120, 120, 195, 1, 1.35884
222, 1, triangle, filler, NA, 999, 999, 3, 11, 92, 156, 143, 128, 129, 84, 2, 2.82036
222, 1, triangle, attraction, a-b-db, 5, 2, 3, 12, 165, 90, 90, 165, 88, 161, 2, 3.4708
222, 1, triangle, attraction, a-b-db, 5, 3, 3, 13, 120, 195, 117, 190, 195, 120, 3, 1.38879
222, 1, triangle, filler, NA, 999, 999, 3, 14, 162, 154, 179, 172, 89, 191, 2, 1.93509
222, 1, triangle, attraction, a-b-da, 9, 3, 3, 15, 186, 114, 120, 195, 195, 120, 3, 1.46876
222, 1, triangle, attraction, a-b-da, 14, 1, 3, 16, 60, 135, 135, 60, 125, 56, 1, 2.23784
222, 1, triangle, filler, NA, 999, 999, 3, 17, 186, 162, 147, 65, 184, 66, 1, 1.09258
222, 1, triangle, filler, NA, 999, 999, 3, 18, 178, 131, 104, 187, 86, 170, 1, 1.97306
222, 1, triangle, filler, NA, 999, 999, 3, 19, 116, 99, 166, 158, 65, 188, 2, 2.29291
222, 1, triangle, attraction, a-b-da, 9, 2, 3, 20, 157, 86, 165, 90, 90, 165, 3, 1.79058
222, 1, triangle, attraction, a-b-da, 5, 2, 3, 21, 90, 165, 165, 90, 161, 88, 3, 1.59885
222, 1, triangle, filler, NA, 999, 999, 3, 22, 143, 88, 81, 74, 63, 130, 1, 1.26812
222, 1, triangle, attraction, a-b-db, 14, 3, 3, 23, 120, 195, 111, 181, 195, 120, 3, 2.71366
222, 1, triangle, attraction, a-b-db, 14, 1, 3, 24, 56, 125, 135, 60, 60, 135, 3, 2.00809
222, 1, triangle, attraction, a-b-da, 2, 1, 3, 25, 135, 60, 134, 59, 60, 135, 3, 1.35551
222, 1, triangle, attraction, a-b-db, 9, 2, 3, 26, 165, 90, 86, 157, 90, 165, 3, 2.63779
222, 1, triangle, filler, NA, 999, 999, 3, 27, 104, 113, 99, 90, 103, 147, 3, 1.79008
222, 1, triangle, attraction, a-b-db, 2, 2, 3, 28, 89, 163, 90, 165, 165, 90, 2, 1.77658
222, 1, triangle, filler, NA, 999, 999, 3, 29, 166, 107, 57, 62, 159, 181, 3, 1.38951
222, 1, triangle, attraction, a-b-db, 2, 3, 3, 30, 120, 195, 119, 193, 195, 120, 2, 1.67017
222, 1, triangle, filler, NA, 999, 999, 3, 31, 164, 71, 192, 67, 182, 179, 3, 1.39949
222, 1, triangle, attraction, a-b-db, 2, 1, 3, 32, 135, 60, 59, 134, 60, 135, 1, 1.68966
222, 1, triangle, attraction, a-b-db, 14, 2, 3, 33, 90, 165, 165, 90, 83, 153, 3, 1.64615
222, 1, triangle, attraction, a-b-da, 5, 1, 3, 34, 135, 60, 132, 58, 60, 135, 3, 1.617
222, 1, triangle, filler, NA, 999, 999, 4, 1, 154, 58, 116, 148, 138, 164, 3, 1.78738
222, 1, triangle, attraction, a-b-da, 9, 3, 4, 2, 120, 195, 186, 114, 195, 120, 3, 2.36506
222, 1, triangle, attraction, a-b-db, 14, 1, 4, 3, 60, 135, 56, 125, 135, 60, 3, 2.28752
222, 1, triangle, filler, NA, 999, 999, 4, 4, 173, 160, 144, 70, 146, 190, 1, 1.78437
222, 1, triangle, filler, NA, 999, 999, 4, 5, 90, 59, 87, 107, 96, 147, 3, 1.57873
222, 1, triangle, attraction, a-b-da, 2, 1, 4, 6, 60, 135, 134, 59, 135, 60, 1, 2.16518
222, 1, triangle, attraction, a-b-da, 5, 1, 4, 7, 135, 60, 60, 135, 132, 58, 1, 2.98259
222, 1, triangle, attraction, a-b-db, 5, 2, 4, 8, 165, 90, 88, 161, 90, 165, 3, 2.03288
222, 1, triangle, filler, NA, 999, 999, 4, 9, 160, 97, 144, 123, 152, 135, 3, 2.29106
222, 1, triangle, attraction, a-b-db, 14, 3, 4, 10, 195, 120, 120, 195, 111, 181, 2, 1.65688
222, 1, triangle, attraction, a-b-db, 14, 2, 4, 11, 165, 90, 90, 165, 83, 153, 1, 1.56754
222, 1, triangle, attraction, a-b-da, 14, 2, 4, 12, 165, 90, 90, 165, 153, 83, 2, 3.41368
222, 1, triangle, attraction, a-b-da, 14, 1, 4, 13, 135, 60, 60, 135, 125, 56, 1, 3.06108
222, 1, triangle, attraction, a-b-da, 5, 3, 4, 14, 190, 117, 120, 195, 195, 120, 3, 2.26174
222, 1, triangle, attraction, a-b-da, 2, 3, 4, 15, 195, 120, 193, 119, 120, 195, 1, 1.58256
222, 1, triangle, attraction, a-b-db, 9, 2, 4, 16, 165, 90, 86, 157, 90, 165, 3, 2.67306
222, 1, triangle, attraction, a-b-db, 5, 3, 4, 17, 195, 120, 120, 195, 117, 190, 3, 1.95317
222, 1, triangle, filler, NA, 999, 999, 4, 18, 126, 107, 68, 116, 100, 63, 1, 1.94898
222, 1, triangle, attraction, a-b-db, 9, 3, 4, 19, 120, 195, 195, 120, 114, 186, 1, 3.12187
222, 1, triangle, attraction, a-b-da, 9, 2, 4, 20, 157, 86, 165, 90, 90, 165, 3, 2.94891
222, 1, triangle, attraction, a-b-db, 5, 1, 4, 21, 135, 60, 58, 132, 60, 135, 3, 2.48854
222, 1, triangle, attraction, a-b-da, 2, 2, 4, 22, 165, 90, 163, 89, 90, 165, 3, 1.65503
222, 1, triangle, filler, NA, 999, 999, 4, 23, 111, 164, 72, 178, 62, 110, 1, 1.32821
222, 1, triangle, attraction, a-b-da, 5, 2, 4, 24, 161, 88, 90, 165, 165, 90, 3, 3.95637
222, 1, triangle, filler, NA, 999, 999, 4, 25, 144, 184, 69, 171, 128, 175, 1, 1.15252
222, 1, triangle, filler, NA, 999, 999, 4, 26, 68, 167, 66, 79, 74, 112, 1, 1.71812
222, 1, triangle, attraction, a-b-da, 9, 1, 4, 27, 135, 60, 60, 135, 129, 57, 3, 2.13177
222, 1, triangle, attraction, a-b-db, 9, 1, 4, 28, 135, 60, 60, 135, 57, 129, 1, 1.58309
222, 1, triangle, attraction, a-b-db, 2, 3, 4, 29, 119, 193, 120, 195, 195, 120, 3, 1.66404
222, 1, triangle, attraction, a-b-db, 2, 1, 4, 30, 59, 134, 60, 135, 135, 60, 2, 2.10594
222, 1, triangle, attraction, a-b-db, 2, 2, 4, 31, 89, 163, 90, 165, 165, 90, 2, 2.12618
222, 1, triangle, filler, NA, 999, 999, 4, 32, 73, 77, 168, 158, 93, 58, 2, 1.39501
222, 1, triangle, attraction, a-b-da, 14, 3, 4, 33, 181, 111, 120, 195, 195, 120, 3, 2.45758
222, 1, triangle, filler, NA, 999, 999, 4, 34, 67, 125, 169, 192, 56, 92, 2, 1.47078
