sub_n, computer_n, disp_cond, effect, set, distance, diag, block_n, trial_n, h1, w1, h2, w2, h3, w3, choice, rt 
247, 3, horizontal, practice, NA, 999, 999, 0, 1, 123, 103, 90, 135, 68, 154, 3, 23.3087
247, 3, horizontal, practice, NA, 999, 999, 0, 2, 141, 64, 110, 191, 172, 171, 3, 18.1478
247, 3, horizontal, practice, NA, 999, 999, 0, 3, 143, 194, 74, 150, 158, 186, 3, 4.56925
247, 3, horizontal, attraction, a-b-da, 5, 2, 1, 1, 165, 90, 90, 165, 161, 88, 1, 5.60196
247, 3, horizontal, attraction, a-b-da, 9, 2, 1, 2, 165, 90, 157, 86, 90, 165, 3, 7.16447
247, 3, horizontal, attraction, a-b-da, 5, 1, 1, 3, 132, 58, 135, 60, 60, 135, 3, 5.72786
247, 3, horizontal, attraction, a-b-db, 5, 3, 1, 4, 117, 190, 195, 120, 120, 195, 1, 6.04212
247, 3, horizontal, filler, NA, 999, 999, 1, 5, 97, 123, 93, 78, 120, 185, 3, 1.64239
247, 3, horizontal, attraction, a-b-da, 14, 2, 1, 6, 165, 90, 90, 165, 153, 83, 1, 2.11389
247, 3, horizontal, attraction, a-b-db, 9, 3, 1, 7, 114, 186, 195, 120, 120, 195, 2, 3.90346
247, 3, horizontal, attraction, a-b-da, 2, 2, 1, 8, 90, 165, 165, 90, 163, 89, 2, 6.26353
247, 3, horizontal, filler, NA, 999, 999, 1, 9, 143, 102, 75, 67, 70, 118, 1, 2.27654
247, 3, horizontal, filler, NA, 999, 999, 1, 10, 138, 61, 105, 178, 152, 137, 3, 6.42839
247, 3, horizontal, attraction, a-b-db, 9, 2, 1, 11, 90, 165, 86, 157, 165, 90, 1, 3.59609
247, 3, horizontal, attraction, a-b-db, 9, 1, 1, 12, 60, 135, 57, 129, 135, 60, 1, 5.28419
247, 3, horizontal, attraction, a-b-da, 9, 3, 1, 13, 186, 114, 120, 195, 195, 120, 3, 4.37165
247, 3, horizontal, attraction, a-b-db, 2, 2, 1, 14, 90, 165, 89, 163, 165, 90, 1, 4.46942
247, 3, horizontal, filler, NA, 999, 999, 1, 15, 131, 171, 158, 68, 80, 192, 1, 1.54105
247, 3, horizontal, attraction, a-b-db, 14, 1, 1, 16, 56, 125, 135, 60, 60, 135, 2, 3.80987
247, 3, horizontal, filler, NA, 999, 999, 1, 17, 173, 122, 132, 111, 123, 57, 1, 2.07408
247, 3, horizontal, attraction, a-b-db, 14, 2, 1, 18, 90, 165, 83, 153, 165, 90, 1, 4.41811
247, 3, horizontal, attraction, a-b-da, 2, 3, 1, 19, 193, 119, 120, 195, 195, 120, 2, 6.12448
247, 3, horizontal, attraction, a-b-da, 14, 3, 1, 20, 195, 120, 120, 195, 181, 111, 2, 5.36635
247, 3, horizontal, attraction, a-b-db, 2, 1, 1, 21, 60, 135, 135, 60, 59, 134, 2, 4.40753
247, 3, horizontal, attraction, a-b-db, 5, 2, 1, 22, 90, 165, 88, 161, 165, 90, 1, 3.21827
247, 3, horizontal, filler, NA, 999, 999, 1, 23, 60, 141, 64, 190, 186, 126, 3, 2.79575
247, 3, horizontal, filler, NA, 999, 999, 1, 24, 67, 144, 106, 56, 84, 175, 3, 5.57334
247, 3, horizontal, attraction, a-b-da, 9, 1, 1, 25, 129, 57, 60, 135, 135, 60, 3, 6.16622
247, 3, horizontal, attraction, a-b-da, 2, 1, 1, 26, 60, 135, 135, 60, 134, 59, 1, 6.3209
247, 3, horizontal, attraction, a-b-db, 5, 1, 1, 27, 135, 60, 58, 132, 60, 135, 1, 2.04509
247, 3, horizontal, attraction, a-b-db, 14, 3, 1, 28, 195, 120, 111, 181, 120, 195, 1, 3.46978
247, 3, horizontal, attraction, a-b-da, 5, 3, 1, 29, 190, 117, 120, 195, 195, 120, 1, 16.941
247, 3, horizontal, filler, NA, 999, 999, 1, 30, 100, 89, 116, 82, 144, 164, 3, 3.08508
247, 3, horizontal, filler, NA, 999, 999, 1, 31, 79, 149, 130, 75, 172, 153, 3, 1.21893
247, 3, horizontal, filler, NA, 999, 999, 1, 32, 89, 77, 154, 124, 129, 123, 2, 2.7489
247, 3, horizontal, attraction, a-b-da, 14, 1, 1, 33, 135, 60, 125, 56, 60, 135, 3, 2.11317
247, 3, horizontal, attraction, a-b-db, 2, 3, 1, 34, 119, 193, 120, 195, 195, 120, 3, 2.35066
247, 3, horizontal, filler, NA, 999, 999, 2, 1, 190, 165, 66, 82, 87, 156, 1, 1.31553
247, 3, horizontal, attraction, a-b-da, 5, 3, 2, 2, 190, 117, 195, 120, 120, 195, 3, 2.31171
247, 3, horizontal, attraction, a-b-db, 9, 2, 2, 3, 86, 157, 165, 90, 90, 165, 3, 4.76824
247, 3, horizontal, attraction, a-b-db, 2, 3, 2, 4, 120, 195, 119, 193, 195, 120, 1, 3.55203
247, 3, horizontal, filler, NA, 999, 999, 2, 5, 164, 141, 132, 102, 177, 80, 1, 1.28392
247, 3, horizontal, attraction, a-b-da, 5, 2, 2, 6, 165, 90, 90, 165, 161, 88, 2, 3.7225
247, 3, horizontal, attraction, a-b-da, 9, 3, 2, 7, 120, 195, 195, 120, 186, 114, 1, 5.12863
247, 3, horizontal, attraction, a-b-da, 14, 2, 2, 8, 153, 83, 90, 165, 165, 90, 2, 2.49237
247, 3, horizontal, attraction, a-b-da, 2, 1, 2, 9, 134, 59, 135, 60, 60, 135, 3, 3.5141
247, 3, horizontal, filler, NA, 999, 999, 2, 10, 166, 162, 188, 178, 78, 154, 2, 1.25555
247, 3, horizontal, attraction, a-b-da, 14, 1, 2, 11, 125, 56, 60, 135, 135, 60, 3, 3.79909
247, 3, horizontal, attraction, a-b-da, 2, 2, 2, 12, 163, 89, 90, 165, 165, 90, 2, 4.53942
247, 3, horizontal, filler, NA, 999, 999, 2, 13, 120, 124, 79, 183, 182, 108, 3, 2.55769
247, 3, horizontal, filler, NA, 999, 999, 2, 14, 96, 172, 190, 144, 128, 72, 2, 1.49649
247, 3, horizontal, attraction, a-b-db, 5, 1, 2, 15, 60, 135, 135, 60, 58, 132, 2, 2.61697
247, 3, horizontal, attraction, a-b-da, 14, 3, 2, 16, 120, 195, 181, 111, 195, 120, 3, 6.91216
247, 3, horizontal, filler, NA, 999, 999, 2, 17, 110, 136, 177, 182, 68, 92, 2, 1.26217
247, 3, horizontal, filler, NA, 999, 999, 2, 18, 167, 154, 65, 162, 158, 133, 1, 3.2164
247, 3, horizontal, filler, NA, 999, 999, 2, 19, 144, 57, 88, 89, 118, 70, 1, 4.28773
247, 3, horizontal, attraction, a-b-db, 9, 1, 2, 20, 135, 60, 57, 129, 60, 135, 1, 5.12397
247, 3, horizontal, attraction, a-b-da, 9, 1, 2, 21, 60, 135, 135, 60, 129, 57, 1, 1.60386
247, 3, horizontal, attraction, a-b-db, 9, 3, 2, 22, 114, 186, 195, 120, 120, 195, 2, 1.64445
247, 3, horizontal, attraction, a-b-db, 14, 3, 2, 23, 111, 181, 120, 195, 195, 120, 3, 2.18877
247, 3, horizontal, attraction, a-b-db, 2, 2, 2, 24, 165, 90, 90, 165, 89, 163, 1, 1.4151
247, 3, horizontal, filler, NA, 999, 999, 2, 25, 144, 83, 115, 164, 72, 192, 2, 1.19231
247, 3, horizontal, attraction, a-b-db, 2, 1, 2, 26, 60, 135, 135, 60, 59, 134, 2, 3.67615
247, 3, horizontal, attraction, a-b-db, 14, 1, 2, 27, 56, 125, 135, 60, 60, 135, 2, 4.82606
247, 3, horizontal, attraction, a-b-da, 9, 2, 2, 28, 90, 165, 165, 90, 157, 86, 2, 3.13827
247, 3, horizontal, attraction, a-b-db, 5, 3, 2, 29, 117, 190, 195, 120, 120, 195, 2, 1.89567
247, 3, horizontal, attraction, a-b-db, 14, 2, 2, 30, 90, 165, 83, 153, 165, 90, 1, 2.3188
247, 3, horizontal, attraction, a-b-da, 5, 1, 2, 31, 60, 135, 132, 58, 135, 60, 1, 4.33181
247, 3, horizontal, filler, NA, 999, 999, 2, 32, 73, 141, 169, 73, 98, 152, 2, 1.25454
247, 3, horizontal, attraction, a-b-db, 5, 2, 2, 33, 165, 90, 90, 165, 88, 161, 1, 2.28088
247, 3, horizontal, attraction, a-b-da, 2, 3, 2, 34, 195, 120, 120, 195, 193, 119, 2, 2.46303
247, 3, horizontal, filler, NA, 999, 999, 3, 1, 63, 122, 82, 86, 122, 76, 1, 2.23042
247, 3, horizontal, filler, NA, 999, 999, 3, 2, 175, 185, 179, 70, 174, 155, 1, 3.4794
247, 3, horizontal, filler, NA, 999, 999, 3, 3, 81, 189, 58, 145, 118, 92, 1, 6.7014
247, 3, horizontal, attraction, a-b-da, 9, 3, 3, 4, 186, 114, 195, 120, 120, 195, 3, 3.45221
247, 3, horizontal, attraction, a-b-da, 14, 2, 3, 5, 165, 90, 90, 165, 153, 83, 2, 1.2972
247, 3, horizontal, attraction, a-b-da, 5, 1, 3, 6, 60, 135, 135, 60, 132, 58, 1, 2.75258
247, 3, horizontal, filler, NA, 999, 999, 3, 7, 106, 123, 79, 168, 97, 58, 2, 2.99747
247, 3, horizontal, attraction, a-b-db, 9, 2, 3, 8, 165, 90, 86, 157, 90, 165, 3, 2.10291
247, 3, horizontal, filler, NA, 999, 999, 3, 9, 195, 131, 74, 151, 123, 139, 1, 4.15619
247, 3, horizontal, attraction, a-b-db, 9, 1, 3, 10, 57, 129, 135, 60, 60, 135, 2, 1.44971
247, 3, horizontal, attraction, a-b-db, 9, 3, 3, 11, 114, 186, 120, 195, 195, 120, 2, 1.39187
247, 3, horizontal, attraction, a-b-da, 9, 2, 3, 12, 165, 90, 157, 86, 90, 165, 3, 3.44353
247, 3, horizontal, filler, NA, 999, 999, 3, 13, 131, 74, 105, 172, 169, 123, 2, 3.34044
247, 3, horizontal, attraction, a-b-db, 5, 3, 3, 14, 195, 120, 117, 190, 120, 195, 1, 3.89744
247, 3, horizontal, attraction, a-b-da, 2, 2, 3, 15, 163, 89, 165, 90, 90, 165, 3, 3.68545
247, 3, horizontal, attraction, a-b-da, 5, 3, 3, 16, 190, 117, 120, 195, 195, 120, 2, 1.43666
247, 3, horizontal, attraction, a-b-da, 14, 3, 3, 17, 181, 111, 120, 195, 195, 120, 2, 1.33279
247, 3, horizontal, attraction, a-b-db, 14, 1, 3, 18, 60, 135, 135, 60, 56, 125, 2, 1.60223
247, 3, horizontal, attraction, a-b-db, 5, 2, 3, 19, 165, 90, 90, 165, 88, 161, 1, 1.62951
247, 3, horizontal, filler, NA, 999, 999, 3, 20, 185, 93, 109, 84, 103, 174, 3, 1.63741
247, 3, horizontal, attraction, a-b-da, 9, 1, 3, 21, 60, 135, 129, 57, 135, 60, 1, 3.52699
247, 3, horizontal, attraction, a-b-da, 5, 2, 3, 22, 90, 165, 165, 90, 161, 88, 1, 1.75439
247, 3, horizontal, attraction, a-b-db, 2, 2, 3, 23, 89, 163, 165, 90, 90, 165, 2, 2.4788
247, 3, horizontal, attraction, a-b-da, 2, 3, 3, 24, 195, 120, 193, 119, 120, 195, 2, 5.5747
247, 3, horizontal, attraction, a-b-da, 2, 1, 3, 25, 60, 135, 134, 59, 135, 60, 1, 2.23444
247, 3, horizontal, attraction, a-b-da, 14, 1, 3, 26, 60, 135, 125, 56, 135, 60, 1, 3.77709
247, 3, horizontal, attraction, a-b-db, 5, 1, 3, 27, 60, 135, 135, 60, 58, 132, 2, 1.94033
247, 3, horizontal, filler, NA, 999, 999, 3, 28, 102, 151, 122, 65, 194, 128, 3, 1.53685
247, 3, horizontal, attraction, a-b-db, 2, 3, 3, 29, 119, 193, 195, 120, 120, 195, 2, 1.25367
247, 3, horizontal, attraction, a-b-db, 14, 3, 3, 30, 120, 195, 111, 181, 195, 120, 1, 4.18228
247, 3, horizontal, filler, NA, 999, 999, 3, 31, 59, 186, 80, 105, 70, 57, 1, 1.37587
247, 3, horizontal, filler, NA, 999, 999, 3, 32, 190, 65, 171, 177, 187, 92, 2, 1.65785
247, 3, horizontal, attraction, a-b-db, 2, 1, 3, 33, 59, 134, 60, 135, 135, 60, 3, 3.32244
247, 3, horizontal, attraction, a-b-db, 14, 2, 3, 34, 165, 90, 90, 165, 83, 153, 1, 8.24213
247, 3, horizontal, filler, NA, 999, 999, 4, 1, 63, 103, 129, 132, 80, 57, 2, 1.11967
247, 3, horizontal, filler, NA, 999, 999, 4, 2, 101, 132, 83, 166, 76, 138, 1, 1.7875
247, 3, horizontal, attraction, a-b-da, 14, 3, 4, 3, 181, 111, 120, 195, 195, 120, 3, 4.00713
247, 3, horizontal, attraction, a-b-da, 2, 1, 4, 4, 134, 59, 135, 60, 60, 135, 2, 7.43295
247, 3, horizontal, attraction, a-b-db, 5, 2, 4, 5, 165, 90, 90, 165, 88, 161, 1, 2.14568
247, 3, horizontal, attraction, a-b-db, 9, 1, 4, 6, 135, 60, 57, 129, 60, 135, 2, 2.3091
247, 3, horizontal, attraction, a-b-da, 9, 1, 4, 7, 60, 135, 135, 60, 129, 57, 2, 1.84408
247, 3, horizontal, attraction, a-b-da, 14, 2, 4, 8, 153, 83, 165, 90, 90, 165, 2, 2.23725
247, 3, horizontal, filler, NA, 999, 999, 4, 9, 168, 151, 90, 87, 140, 127, 1, 1.13168
247, 3, horizontal, attraction, a-b-db, 5, 1, 4, 10, 60, 135, 58, 132, 135, 60, 3, 1.79327
247, 3, horizontal, filler, NA, 999, 999, 4, 11, 195, 152, 100, 173, 127, 72, 1, 1.15668
247, 3, horizontal, attraction, a-b-db, 14, 3, 4, 12, 120, 195, 195, 120, 111, 181, 2, 0.976526
247, 3, horizontal, attraction, a-b-db, 5, 3, 4, 13, 195, 120, 117, 190, 120, 195, 1, 1.04326
247, 3, horizontal, attraction, a-b-db, 9, 2, 4, 14, 86, 157, 90, 165, 165, 90, 3, 1.12564
247, 3, horizontal, attraction, a-b-da, 14, 1, 4, 15, 125, 56, 60, 135, 135, 60, 2, 1.26661
247, 3, horizontal, attraction, a-b-da, 5, 3, 4, 16, 195, 120, 120, 195, 190, 117, 2, 1.07489
247, 3, horizontal, attraction, a-b-db, 14, 1, 4, 17, 135, 60, 60, 135, 56, 125, 2, 1.08924
247, 3, horizontal, attraction, a-b-db, 2, 1, 4, 18, 60, 135, 59, 134, 135, 60, 3, 4.297
247, 3, horizontal, attraction, a-b-da, 5, 1, 4, 19, 132, 58, 60, 135, 135, 60, 2, 1.19972
247, 3, horizontal, attraction, a-b-da, 9, 2, 4, 20, 157, 86, 165, 90, 90, 165, 2, 1.30694
247, 3, horizontal, attraction, a-b-da, 2, 2, 4, 21, 163, 89, 165, 90, 90, 165, 2, 1.94333
247, 3, horizontal, attraction, a-b-db, 9, 3, 4, 22, 195, 120, 114, 186, 120, 195, 3, 2.85287
247, 3, horizontal, attraction, a-b-da, 5, 2, 4, 23, 90, 165, 165, 90, 161, 88, 2, 2.86696
247, 3, horizontal, filler, NA, 999, 999, 4, 24, 188, 104, 114, 98, 101, 68, 1, 1.05121
247, 3, horizontal, attraction, a-b-db, 14, 2, 4, 25, 165, 90, 90, 165, 83, 153, 1, 2.40957
247, 3, horizontal, attraction, a-b-db, 2, 2, 4, 26, 90, 165, 89, 163, 165, 90, 2, 2.8459
247, 3, horizontal, filler, NA, 999, 999, 4, 27, 143, 105, 154, 59, 73, 104, 1, 1.23716
247, 3, horizontal, attraction, a-b-db, 2, 3, 4, 28, 120, 195, 119, 193, 195, 120, 3, 3.96492
247, 3, horizontal, attraction, a-b-da, 2, 3, 4, 29, 120, 195, 193, 119, 195, 120, 1, 6.24997
247, 3, horizontal, filler, NA, 999, 999, 4, 30, 130, 115, 151, 165, 78, 186, 2, 1.78416
247, 3, horizontal, filler, NA, 999, 999, 4, 31, 81, 135, 64, 182, 78, 163, 3, 4.0592
247, 3, horizontal, filler, NA, 999, 999, 4, 32, 129, 87, 57, 138, 66, 59, 1, 1.36236
247, 3, horizontal, attraction, a-b-da, 9, 3, 4, 33, 120, 195, 195, 120, 186, 114, 2, 17.3097
247, 3, horizontal, filler, NA, 999, 999, 4, 34, 124, 169, 73, 180, 59, 64, 1, 1.17594
