sub_n, computer_n, disp_cond, effect, set, distance, diag, block_n, trial_n, h1, w1, h2, w2, h3, w3, choice, rt 
481, 6, horizontal, practice, NA, 999, 999, 0, 1, 156, 122, 75, 188, 138, 163, 3, 2.72559
481, 6, horizontal, practice, NA, 999, 999, 0, 2, 98, 83, 134, 76, 111, 61, 2, 2.06795
481, 6, horizontal, practice, NA, 999, 999, 0, 3, 150, 155, 88, 80, 121, 138, 1, 1.62129
481, 6, horizontal, attraction, a-b-da, 14, 3, 1, 1, 195, 120, 120, 195, 181, 111, 2, 3.40323
481, 6, horizontal, attraction, a-b-da, 5, 2, 1, 2, 90, 165, 165, 90, 161, 88, 1, 2.20385
481, 6, horizontal, attraction, a-b-db, 14, 3, 1, 3, 111, 181, 195, 120, 120, 195, 3, 1.8636
481, 6, horizontal, filler, NA, 999, 999, 1, 4, 162, 153, 170, 189, 169, 67, 2, 1.49594
481, 6, horizontal, filler, NA, 999, 999, 1, 5, 89, 122, 190, 130, 95, 63, 2, 1.37192
481, 6, horizontal, attraction, a-b-db, 9, 3, 1, 6, 120, 195, 195, 120, 114, 186, 1, 1.91546
481, 6, horizontal, attraction, a-b-da, 9, 1, 1, 7, 135, 60, 129, 57, 60, 135, 3, 1.67051
481, 6, horizontal, attraction, a-b-db, 5, 2, 1, 8, 90, 165, 88, 161, 165, 90, 2, 3.85467
481, 6, horizontal, filler, NA, 999, 999, 1, 9, 67, 144, 152, 174, 84, 174, 2, 1.90772
481, 6, horizontal, attraction, a-b-da, 9, 3, 1, 10, 186, 114, 120, 195, 195, 120, 2, 2.18639
481, 6, horizontal, attraction, a-b-db, 2, 3, 1, 11, 120, 195, 119, 193, 195, 120, 2, 1.25653
481, 6, horizontal, attraction, a-b-db, 14, 1, 1, 12, 135, 60, 60, 135, 56, 125, 2, 2.39063
481, 6, horizontal, attraction, a-b-da, 2, 2, 1, 13, 90, 165, 163, 89, 165, 90, 3, 2.08113
481, 6, horizontal, filler, NA, 999, 999, 1, 14, 150, 166, 178, 181, 170, 154, 2, 1.32784
481, 6, horizontal, filler, NA, 999, 999, 1, 15, 72, 153, 88, 116, 68, 158, 2, 1.44522
481, 6, horizontal, attraction, a-b-da, 9, 2, 1, 16, 165, 90, 157, 86, 90, 165, 3, 2.12677
481, 6, horizontal, filler, NA, 999, 999, 1, 17, 162, 128, 106, 112, 182, 172, 3, 1.48328
481, 6, horizontal, filler, NA, 999, 999, 1, 18, 166, 107, 162, 120, 64, 119, 2, 1.43404
481, 6, horizontal, attraction, a-b-db, 14, 2, 1, 19, 83, 153, 165, 90, 90, 165, 3, 2.37061
481, 6, horizontal, attraction, a-b-db, 5, 3, 1, 20, 120, 195, 195, 120, 117, 190, 1, 1.9341
481, 6, horizontal, filler, NA, 999, 999, 1, 21, 155, 56, 180, 131, 165, 71, 2, 1.12257
481, 6, horizontal, attraction, a-b-da, 14, 2, 1, 22, 153, 83, 90, 165, 165, 90, 2, 1.74466
481, 6, horizontal, attraction, a-b-db, 2, 2, 1, 23, 165, 90, 89, 163, 90, 165, 3, 2.39685
481, 6, horizontal, attraction, a-b-da, 5, 1, 1, 24, 135, 60, 60, 135, 132, 58, 2, 2.01641
481, 6, horizontal, attraction, a-b-da, 14, 1, 1, 25, 125, 56, 135, 60, 60, 135, 3, 2.80816
481, 6, horizontal, attraction, a-b-da, 2, 1, 1, 26, 134, 59, 60, 135, 135, 60, 2, 1.22587
481, 6, horizontal, filler, NA, 999, 999, 1, 27, 155, 135, 126, 170, 109, 107, 2, 2.39616
481, 6, horizontal, filler, NA, 999, 999, 1, 28, 65, 171, 65, 167, 100, 170, 3, 1.30365
481, 6, horizontal, attraction, a-b-db, 9, 1, 1, 29, 57, 129, 60, 135, 135, 60, 2, 1.62889
481, 6, horizontal, attraction, a-b-db, 5, 1, 1, 30, 60, 135, 58, 132, 135, 60, 2, 1.46949
481, 6, horizontal, attraction, a-b-da, 5, 3, 1, 31, 120, 195, 190, 117, 195, 120, 1, 2.67615
481, 6, horizontal, attraction, a-b-db, 2, 1, 1, 32, 135, 60, 60, 135, 59, 134, 2, 2.11698
481, 6, horizontal, attraction, a-b-da, 2, 3, 1, 33, 120, 195, 195, 120, 193, 119, 1, 1.85076
481, 6, horizontal, attraction, a-b-db, 9, 2, 1, 34, 90, 165, 86, 157, 165, 90, 2, 1.80119
481, 6, horizontal, attraction, a-b-da, 9, 1, 2, 1, 60, 135, 129, 57, 135, 60, 3, 1.7403
481, 6, horizontal, attraction, a-b-db, 14, 3, 2, 2, 111, 181, 195, 120, 120, 195, 3, 1.80041
481, 6, horizontal, attraction, a-b-db, 9, 3, 2, 3, 114, 186, 120, 195, 195, 120, 2, 1.58007
481, 6, horizontal, filler, NA, 999, 999, 2, 4, 122, 61, 144, 105, 131, 118, 2, 2.57446
481, 6, horizontal, filler, NA, 999, 999, 2, 5, 176, 74, 166, 145, 190, 72, 2, 1.18652
481, 6, horizontal, filler, NA, 999, 999, 2, 6, 154, 93, 176, 179, 112, 152, 2, 1.82915
481, 6, horizontal, attraction, a-b-da, 9, 2, 2, 7, 90, 165, 165, 90, 157, 86, 2, 2.32528
481, 6, horizontal, filler, NA, 999, 999, 2, 8, 163, 175, 135, 90, 95, 161, 1, 1.33132
481, 6, horizontal, attraction, a-b-db, 2, 1, 2, 9, 135, 60, 59, 134, 60, 135, 3, 1.39895
481, 6, horizontal, filler, NA, 999, 999, 2, 10, 140, 193, 63, 113, 101, 185, 1, 1.26753
481, 6, horizontal, attraction, a-b-da, 5, 2, 2, 11, 161, 88, 90, 165, 165, 90, 2, 1.4741
481, 6, horizontal, attraction, a-b-db, 5, 3, 2, 12, 195, 120, 120, 195, 117, 190, 2, 2.31257
481, 6, horizontal, filler, NA, 999, 999, 2, 13, 151, 126, 112, 58, 113, 183, 3, 3.8311
481, 6, horizontal, attraction, a-b-da, 14, 1, 2, 14, 135, 60, 60, 135, 125, 56, 2, 1.49667
481, 6, horizontal, attraction, a-b-db, 14, 2, 2, 15, 83, 153, 90, 165, 165, 90, 2, 1.35929
481, 6, horizontal, filler, NA, 999, 999, 2, 16, 81, 137, 156, 61, 148, 163, 2, 1.27379
481, 6, horizontal, filler, NA, 999, 999, 2, 17, 174, 67, 124, 113, 113, 192, 3, 2.65191
481, 6, horizontal, attraction, a-b-db, 5, 1, 2, 18, 58, 132, 135, 60, 60, 135, 1, 2.05225
481, 6, horizontal, attraction, a-b-da, 2, 2, 2, 19, 165, 90, 90, 165, 163, 89, 2, 2.48972
481, 6, horizontal, attraction, a-b-db, 9, 2, 2, 20, 165, 90, 90, 165, 86, 157, 2, 2.17742
481, 6, horizontal, attraction, a-b-db, 14, 1, 2, 21, 60, 135, 56, 125, 135, 60, 3, 2.48625
481, 6, horizontal, attraction, a-b-da, 2, 3, 2, 22, 193, 119, 195, 120, 120, 195, 2, 3.84408
481, 6, horizontal, attraction, a-b-da, 9, 3, 2, 23, 120, 195, 186, 114, 195, 120, 3, 1.94517
481, 6, horizontal, attraction, a-b-da, 14, 2, 2, 24, 165, 90, 153, 83, 90, 165, 3, 1.67813
481, 6, horizontal, filler, NA, 999, 999, 2, 25, 109, 83, 86, 144, 180, 85, 3, 2.37366
481, 6, horizontal, attraction, a-b-db, 2, 3, 2, 26, 120, 195, 195, 120, 119, 193, 2, 1.91357
481, 6, horizontal, attraction, a-b-da, 14, 3, 2, 27, 195, 120, 181, 111, 120, 195, 1, 2.47915
481, 6, horizontal, attraction, a-b-db, 5, 2, 2, 28, 165, 90, 88, 161, 90, 165, 3, 1.92744
481, 6, horizontal, attraction, a-b-db, 9, 1, 2, 29, 135, 60, 60, 135, 57, 129, 2, 2.46902
481, 6, horizontal, attraction, a-b-db, 2, 2, 2, 30, 89, 163, 90, 165, 165, 90, 2, 1.74677
481, 6, horizontal, filler, NA, 999, 999, 2, 31, 105, 187, 71, 63, 77, 129, 1, 1.4738
481, 6, horizontal, attraction, a-b-da, 5, 3, 2, 32, 120, 195, 195, 120, 190, 117, 2, 2.00836
481, 6, horizontal, attraction, a-b-da, 5, 1, 2, 33, 135, 60, 132, 58, 60, 135, 3, 1.89812
481, 6, horizontal, attraction, a-b-da, 2, 1, 2, 34, 134, 59, 135, 60, 60, 135, 3, 1.45623
481, 6, horizontal, attraction, a-b-db, 5, 2, 3, 1, 165, 90, 90, 165, 88, 161, 2, 2.50431
481, 6, horizontal, attraction, a-b-db, 14, 1, 3, 2, 135, 60, 56, 125, 60, 135, 3, 1.26314
481, 6, horizontal, attraction, a-b-da, 9, 1, 3, 3, 60, 135, 135, 60, 129, 57, 2, 1.91051
481, 6, horizontal, attraction, a-b-db, 9, 2, 3, 4, 165, 90, 86, 157, 90, 165, 3, 1.70879
481, 6, horizontal, attraction, a-b-da, 2, 2, 3, 5, 90, 165, 163, 89, 165, 90, 1, 2.05064
481, 6, horizontal, filler, NA, 999, 999, 3, 6, 69, 149, 104, 109, 137, 161, 3, 1.22544
481, 6, horizontal, attraction, a-b-db, 2, 3, 3, 7, 119, 193, 195, 120, 120, 195, 2, 2.49971
481, 6, horizontal, attraction, a-b-da, 9, 2, 3, 8, 157, 86, 90, 165, 165, 90, 2, 1.6083
481, 6, horizontal, attraction, a-b-da, 5, 1, 3, 9, 60, 135, 135, 60, 132, 58, 2, 2.70797
481, 6, horizontal, filler, NA, 999, 999, 3, 10, 131, 187, 122, 138, 124, 177, 1, 2.38687
481, 6, horizontal, filler, NA, 999, 999, 3, 11, 143, 86, 111, 106, 59, 129, 1, 4.66649
481, 6, horizontal, attraction, a-b-da, 5, 2, 3, 12, 161, 88, 165, 90, 90, 165, 2, 1.62783
481, 6, horizontal, attraction, a-b-db, 2, 1, 3, 13, 60, 135, 59, 134, 135, 60, 2, 1.74692
481, 6, horizontal, attraction, a-b-da, 2, 3, 3, 14, 195, 120, 120, 195, 193, 119, 2, 2.2732
481, 6, horizontal, attraction, a-b-db, 5, 3, 3, 15, 195, 120, 120, 195, 117, 190, 1, 2.17643
481, 6, horizontal, attraction, a-b-db, 9, 3, 3, 16, 195, 120, 114, 186, 120, 195, 3, 1.35625
481, 6, horizontal, attraction, a-b-db, 14, 2, 3, 17, 90, 165, 165, 90, 83, 153, 3, 1.59351
481, 6, horizontal, attraction, a-b-db, 9, 1, 3, 18, 60, 135, 57, 129, 135, 60, 3, 2.37975
481, 6, horizontal, attraction, a-b-da, 14, 3, 3, 19, 195, 120, 181, 111, 120, 195, 1, 2.15664
481, 6, horizontal, filler, NA, 999, 999, 3, 20, 145, 151, 117, 139, 102, 97, 1, 1.51265
481, 6, horizontal, attraction, a-b-da, 14, 2, 3, 21, 153, 83, 90, 165, 165, 90, 3, 1.46382
481, 6, horizontal, filler, NA, 999, 999, 3, 22, 139, 94, 162, 161, 150, 117, 2, 1.38458
481, 6, horizontal, attraction, a-b-db, 5, 1, 3, 23, 60, 135, 135, 60, 58, 132, 2, 2.9087
481, 6, horizontal, attraction, a-b-da, 9, 3, 3, 24, 120, 195, 186, 114, 195, 120, 3, 2.35292
481, 6, horizontal, filler, NA, 999, 999, 3, 25, 122, 58, 61, 179, 126, 184, 3, 1.11004
481, 6, horizontal, attraction, a-b-da, 14, 1, 3, 26, 60, 135, 125, 56, 135, 60, 3, 1.63512
481, 6, horizontal, attraction, a-b-da, 2, 1, 3, 27, 60, 135, 135, 60, 134, 59, 3, 2.10638
481, 6, horizontal, attraction, a-b-db, 14, 3, 3, 28, 195, 120, 120, 195, 111, 181, 2, 3.0104
481, 6, horizontal, filler, NA, 999, 999, 3, 29, 178, 111, 86, 121, 80, 112, 1, 2.21256
481, 6, horizontal, filler, NA, 999, 999, 3, 30, 99, 169, 168, 78, 109, 66, 1, 1.4054
481, 6, horizontal, attraction, a-b-db, 2, 2, 3, 31, 165, 90, 89, 163, 90, 165, 3, 1.5272
481, 6, horizontal, attraction, a-b-da, 5, 3, 3, 32, 120, 195, 190, 117, 195, 120, 3, 1.83035
481, 6, horizontal, filler, NA, 999, 999, 3, 33, 115, 121, 161, 121, 67, 73, 2, 1.37401
481, 6, horizontal, filler, NA, 999, 999, 3, 34, 58, 72, 64, 155, 72, 100, 2, 2.68243
481, 6, horizontal, filler, NA, 999, 999, 4, 1, 118, 127, 152, 171, 166, 59, 2, 1.21757
481, 6, horizontal, filler, NA, 999, 999, 4, 2, 85, 66, 75, 163, 145, 92, 2, 2.02553
481, 6, horizontal, attraction, a-b-da, 5, 3, 4, 3, 195, 120, 120, 195, 190, 117, 1, 2.29964
481, 6, horizontal, attraction, a-b-da, 2, 2, 4, 4, 163, 89, 165, 90, 90, 165, 2, 1.64221
481, 6, horizontal, attraction, a-b-da, 2, 1, 4, 5, 135, 60, 60, 135, 134, 59, 2, 2.00315
481, 6, horizontal, attraction, a-b-db, 9, 1, 4, 6, 135, 60, 60, 135, 57, 129, 1, 2.06033
481, 6, horizontal, attraction, a-b-db, 9, 2, 4, 7, 90, 165, 165, 90, 86, 157, 1, 1.80407
481, 6, horizontal, filler, NA, 999, 999, 4, 8, 154, 164, 141, 57, 83, 63, 1, 1.30238
481, 6, horizontal, attraction, a-b-da, 14, 1, 4, 9, 135, 60, 60, 135, 125, 56, 2, 1.5324
481, 6, horizontal, attraction, a-b-da, 5, 1, 4, 10, 135, 60, 132, 58, 60, 135, 3, 1.36296
481, 6, horizontal, attraction, a-b-db, 9, 3, 4, 11, 114, 186, 120, 195, 195, 120, 2, 1.48807
481, 6, horizontal, attraction, a-b-da, 5, 2, 4, 12, 161, 88, 90, 165, 165, 90, 2, 1.87686
481, 6, horizontal, attraction, a-b-db, 14, 3, 4, 13, 195, 120, 111, 181, 120, 195, 3, 1.33781
481, 6, horizontal, attraction, a-b-da, 9, 3, 4, 14, 120, 195, 195, 120, 186, 114, 3, 1.61732
481, 6, horizontal, attraction, a-b-da, 9, 1, 4, 15, 135, 60, 60, 135, 129, 57, 3, 2.4751
481, 6, horizontal, attraction, a-b-da, 14, 3, 4, 16, 120, 195, 181, 111, 195, 120, 3, 2.59973
481, 6, horizontal, filler, NA, 999, 999, 4, 17, 172, 96, 98, 191, 92, 79, 2, 2.24453
481, 6, horizontal, attraction, a-b-db, 2, 1, 4, 18, 135, 60, 59, 134, 60, 135, 3, 1.60382
481, 6, horizontal, attraction, a-b-db, 14, 2, 4, 19, 165, 90, 83, 153, 90, 165, 3, 1.76672
481, 6, horizontal, filler, NA, 999, 999, 4, 20, 159, 83, 172, 144, 118, 154, 2, 1.81107
481, 6, horizontal, filler, NA, 999, 999, 4, 21, 58, 93, 117, 172, 109, 193, 3, 2.41983
481, 6, horizontal, attraction, a-b-db, 2, 2, 4, 22, 165, 90, 90, 165, 89, 163, 3, 2.244
481, 6, horizontal, attraction, a-b-db, 2, 3, 4, 23, 120, 195, 119, 193, 195, 120, 3, 1.81362
481, 6, horizontal, attraction, a-b-db, 5, 1, 4, 24, 60, 135, 135, 60, 58, 132, 3, 2.17553
481, 6, horizontal, attraction, a-b-db, 14, 1, 4, 25, 56, 125, 135, 60, 60, 135, 3, 1.51419
481, 6, horizontal, attraction, a-b-da, 14, 2, 4, 26, 90, 165, 165, 90, 153, 83, 2, 1.60839
481, 6, horizontal, filler, NA, 999, 999, 4, 27, 60, 189, 116, 193, 67, 174, 2, 1.71271
481, 6, horizontal, attraction, a-b-da, 2, 3, 4, 28, 195, 120, 193, 119, 120, 195, 2, 1.64842
481, 6, horizontal, filler, NA, 999, 999, 4, 29, 61, 103, 159, 168, 81, 59, 2, 1.0489
481, 6, horizontal, attraction, a-b-db, 5, 3, 4, 30, 117, 190, 120, 195, 195, 120, 3, 2.13652
481, 6, horizontal, attraction, a-b-da, 9, 2, 4, 31, 90, 165, 157, 86, 165, 90, 3, 1.69106
481, 6, horizontal, filler, NA, 999, 999, 4, 32, 128, 104, 70, 191, 172, 183, 3, 1.26809
481, 6, horizontal, filler, NA, 999, 999, 4, 33, 96, 160, 99, 76, 140, 127, 3, 2.45778
481, 6, horizontal, attraction, a-b-db, 5, 2, 4, 34, 90, 165, 88, 161, 165, 90, 1, 1.87537
