sub_n, computer_n, disp_cond, effect, set, distance, diag, block_n, trial_n, h1, w1, h2, w2, h3, w3, choice, rt 
295, 5, horizontal, practice, NA, 999, 999, 0, 1, 194, 105, 187, 118, 122, 90, 2, 3.04873
295, 5, horizontal, practice, NA, 999, 999, 0, 2, 100, 130, 98, 153, 95, 83, 2, 2.06537
295, 5, horizontal, practice, NA, 999, 999, 0, 3, 116, 169, 189, 88, 97, 139, 1, 2.25608
295, 5, horizontal, attraction, a-b-db, 2, 2, 1, 1, 165, 90, 89, 163, 90, 165, 3, 3.57264
295, 5, horizontal, attraction, a-b-da, 5, 2, 1, 2, 165, 90, 161, 88, 90, 165, 1, 3.1783
295, 5, horizontal, filler, NA, 999, 999, 1, 3, 143, 90, 191, 178, 106, 111, 2, 1.66004
295, 5, horizontal, attraction, a-b-da, 2, 1, 1, 4, 60, 135, 134, 59, 135, 60, 2, 5.41282
295, 5, horizontal, attraction, a-b-db, 5, 3, 1, 5, 117, 190, 195, 120, 120, 195, 3, 2.44663
295, 5, horizontal, attraction, a-b-da, 2, 3, 1, 6, 195, 120, 120, 195, 193, 119, 1, 5.07991
295, 5, horizontal, attraction, a-b-db, 14, 2, 1, 7, 165, 90, 83, 153, 90, 165, 3, 2.23826
295, 5, horizontal, attraction, a-b-db, 2, 3, 1, 8, 120, 195, 195, 120, 119, 193, 1, 1.81852
295, 5, horizontal, attraction, a-b-db, 5, 2, 1, 9, 165, 90, 88, 161, 90, 165, 3, 5.82581
295, 5, horizontal, attraction, a-b-da, 14, 2, 1, 10, 153, 83, 90, 165, 165, 90, 2, 2.23632
295, 5, horizontal, filler, NA, 999, 999, 1, 11, 117, 132, 154, 173, 76, 143, 2, 1.43049
295, 5, horizontal, filler, NA, 999, 999, 1, 12, 95, 160, 66, 166, 176, 184, 3, 1.42386
295, 5, horizontal, attraction, a-b-db, 9, 1, 1, 13, 57, 129, 135, 60, 60, 135, 3, 2.5081
295, 5, horizontal, filler, NA, 999, 999, 1, 14, 66, 60, 124, 107, 149, 155, 3, 1.39277
295, 5, horizontal, attraction, a-b-da, 9, 1, 1, 15, 135, 60, 129, 57, 60, 135, 3, 2.35607
295, 5, horizontal, attraction, a-b-da, 5, 1, 1, 16, 135, 60, 60, 135, 132, 58, 2, 2.78436
295, 5, horizontal, filler, NA, 999, 999, 1, 17, 111, 80, 138, 135, 152, 64, 2, 1.63645
295, 5, horizontal, attraction, a-b-da, 9, 2, 1, 18, 90, 165, 165, 90, 157, 86, 1, 2.98781
295, 5, horizontal, attraction, a-b-db, 2, 1, 1, 19, 59, 134, 135, 60, 60, 135, 3, 2.33035
295, 5, horizontal, attraction, a-b-da, 5, 3, 1, 20, 190, 117, 120, 195, 195, 120, 2, 6.62986
295, 5, horizontal, attraction, a-b-da, 2, 2, 1, 21, 163, 89, 90, 165, 165, 90, 3, 1.60595
295, 5, horizontal, attraction, a-b-db, 9, 3, 1, 22, 195, 120, 114, 186, 120, 195, 1, 4.13048
295, 5, horizontal, attraction, a-b-da, 9, 3, 1, 23, 120, 195, 195, 120, 186, 114, 2, 1.3101
295, 5, horizontal, filler, NA, 999, 999, 1, 24, 139, 154, 60, 83, 97, 96, 1, 1.3412
295, 5, horizontal, filler, NA, 999, 999, 1, 25, 91, 174, 141, 95, 94, 138, 2, 4.49145
295, 5, horizontal, attraction, a-b-db, 5, 1, 1, 26, 58, 132, 135, 60, 60, 135, 3, 1.96942
295, 5, horizontal, filler, NA, 999, 999, 1, 27, 89, 146, 137, 67, 135, 168, 3, 2.047
295, 5, horizontal, filler, NA, 999, 999, 1, 28, 82, 191, 177, 84, 158, 58, 1, 2.93375
295, 5, horizontal, attraction, a-b-db, 14, 1, 1, 29, 56, 125, 60, 135, 135, 60, 2, 4.35599
295, 5, horizontal, filler, NA, 999, 999, 1, 30, 81, 174, 157, 158, 140, 148, 2, 1.53637
295, 5, horizontal, attraction, a-b-db, 9, 2, 1, 31, 90, 165, 86, 157, 165, 90, 1, 2.30208
295, 5, horizontal, attraction, a-b-da, 14, 1, 1, 32, 125, 56, 135, 60, 60, 135, 3, 1.95733
295, 5, horizontal, attraction, a-b-db, 14, 3, 1, 33, 120, 195, 111, 181, 195, 120, 1, 2.25625
295, 5, horizontal, attraction, a-b-da, 14, 3, 1, 34, 181, 111, 195, 120, 120, 195, 2, 2.78836
295, 5, horizontal, attraction, a-b-da, 14, 1, 2, 1, 60, 135, 135, 60, 125, 56, 1, 1.9888
295, 5, horizontal, filler, NA, 999, 999, 2, 2, 157, 89, 94, 182, 81, 131, 2, 1.71199
295, 5, horizontal, attraction, a-b-da, 2, 1, 2, 3, 135, 60, 134, 59, 60, 135, 3, 1.63931
295, 5, horizontal, attraction, a-b-db, 14, 1, 2, 4, 56, 125, 135, 60, 60, 135, 3, 5.09425
295, 5, horizontal, filler, NA, 999, 999, 2, 5, 89, 139, 143, 87, 112, 137, 2, 5.02996
295, 5, horizontal, attraction, a-b-db, 2, 3, 2, 6, 195, 120, 120, 195, 119, 193, 2, 4.48051
295, 5, horizontal, attraction, a-b-da, 9, 1, 2, 7, 129, 57, 60, 135, 135, 60, 3, 3.28624
295, 5, horizontal, attraction, a-b-da, 5, 3, 2, 8, 120, 195, 190, 117, 195, 120, 3, 1.47205
295, 5, horizontal, filler, NA, 999, 999, 2, 9, 101, 171, 186, 135, 109, 63, 2, 1.34474
295, 5, horizontal, filler, NA, 999, 999, 2, 10, 135, 78, 187, 131, 57, 164, 2, 1.33322
295, 5, horizontal, filler, NA, 999, 999, 2, 11, 116, 107, 96, 82, 166, 129, 3, 2.13154
295, 5, horizontal, filler, NA, 999, 999, 2, 12, 153, 100, 136, 70, 88, 186, 3, 2.76071
295, 5, horizontal, attraction, a-b-da, 9, 2, 2, 13, 157, 86, 90, 165, 165, 90, 2, 3.0116
295, 5, horizontal, filler, NA, 999, 999, 2, 14, 184, 174, 136, 89, 119, 61, 1, 1.3675
295, 5, horizontal, attraction, a-b-db, 5, 3, 2, 15, 117, 190, 120, 195, 195, 120, 3, 1.38696
295, 5, horizontal, attraction, a-b-db, 2, 1, 2, 16, 60, 135, 135, 60, 59, 134, 2, 2.79694
295, 5, horizontal, filler, NA, 999, 999, 2, 17, 162, 92, 175, 108, 96, 180, 2, 1.67299
295, 5, horizontal, attraction, a-b-db, 2, 2, 2, 18, 165, 90, 89, 163, 90, 165, 1, 1.76155
295, 5, horizontal, attraction, a-b-db, 5, 2, 2, 19, 90, 165, 88, 161, 165, 90, 3, 1.34811
295, 5, horizontal, filler, NA, 999, 999, 2, 20, 111, 62, 70, 88, 90, 159, 3, 1.50761
295, 5, horizontal, attraction, a-b-db, 14, 2, 2, 21, 83, 153, 90, 165, 165, 90, 2, 1.79947
295, 5, horizontal, attraction, a-b-da, 14, 3, 2, 22, 181, 111, 195, 120, 120, 195, 2, 1.79668
295, 5, horizontal, attraction, a-b-db, 9, 1, 2, 23, 60, 135, 135, 60, 57, 129, 1, 1.49248
295, 5, horizontal, attraction, a-b-db, 9, 3, 2, 24, 195, 120, 114, 186, 120, 195, 3, 1.36396
295, 5, horizontal, attraction, a-b-da, 2, 3, 2, 25, 195, 120, 120, 195, 193, 119, 3, 2.25865
295, 5, horizontal, attraction, a-b-da, 2, 2, 2, 26, 165, 90, 163, 89, 90, 165, 2, 1.62637
295, 5, horizontal, attraction, a-b-db, 14, 3, 2, 27, 111, 181, 120, 195, 195, 120, 2, 1.44464
295, 5, horizontal, attraction, a-b-da, 5, 1, 2, 28, 132, 58, 135, 60, 60, 135, 2, 3.00536
295, 5, horizontal, attraction, a-b-db, 9, 2, 2, 29, 165, 90, 86, 157, 90, 165, 1, 1.45606
295, 5, horizontal, attraction, a-b-db, 5, 1, 2, 30, 60, 135, 58, 132, 135, 60, 2, 2.75274
295, 5, horizontal, attraction, a-b-da, 9, 3, 2, 31, 195, 120, 120, 195, 186, 114, 1, 4.83589
295, 5, horizontal, attraction, a-b-da, 14, 2, 2, 32, 153, 83, 90, 165, 165, 90, 1, 1.39191
295, 5, horizontal, attraction, a-b-da, 5, 2, 2, 33, 90, 165, 161, 88, 165, 90, 1, 1.23551
295, 5, horizontal, filler, NA, 999, 999, 2, 34, 110, 65, 110, 133, 78, 58, 2, 1.32975
295, 5, horizontal, filler, NA, 999, 999, 3, 1, 112, 154, 115, 175, 155, 146, 3, 1.80988
295, 5, horizontal, attraction, a-b-da, 5, 3, 3, 2, 120, 195, 195, 120, 190, 117, 2, 1.74713
295, 5, horizontal, attraction, a-b-da, 2, 1, 3, 3, 134, 59, 60, 135, 135, 60, 3, 2.28968
295, 5, horizontal, attraction, a-b-db, 14, 1, 3, 4, 135, 60, 60, 135, 56, 125, 1, 1.83037
295, 5, horizontal, attraction, a-b-db, 2, 3, 3, 5, 195, 120, 120, 195, 119, 193, 3, 2.60805
295, 5, horizontal, filler, NA, 999, 999, 3, 6, 131, 117, 166, 154, 101, 104, 2, 1.0523
295, 5, horizontal, attraction, a-b-da, 9, 3, 3, 7, 120, 195, 186, 114, 195, 120, 3, 1.69136
295, 5, horizontal, filler, NA, 999, 999, 3, 8, 84, 58, 187, 191, 187, 165, 2, 4.13947
295, 5, horizontal, filler, NA, 999, 999, 3, 9, 168, 146, 127, 132, 129, 137, 1, 1.84301
295, 5, horizontal, attraction, a-b-da, 14, 3, 3, 10, 120, 195, 195, 120, 181, 111, 1, 1.87309
295, 5, horizontal, attraction, a-b-da, 9, 2, 3, 11, 90, 165, 157, 86, 165, 90, 3, 2.17947
295, 5, horizontal, attraction, a-b-db, 2, 1, 3, 12, 135, 60, 60, 135, 59, 134, 3, 3.01462
295, 5, horizontal, filler, NA, 999, 999, 3, 13, 108, 88, 91, 176, 170, 144, 3, 1.83344
295, 5, horizontal, attraction, a-b-da, 5, 2, 3, 14, 161, 88, 90, 165, 165, 90, 3, 3.03303
295, 5, horizontal, attraction, a-b-da, 5, 1, 3, 15, 60, 135, 135, 60, 132, 58, 2, 2.52209
295, 5, horizontal, attraction, a-b-da, 9, 1, 3, 16, 60, 135, 129, 57, 135, 60, 3, 1.37678
295, 5, horizontal, attraction, a-b-da, 14, 1, 3, 17, 60, 135, 125, 56, 135, 60, 1, 1.50104
295, 5, horizontal, attraction, a-b-db, 5, 3, 3, 18, 120, 195, 195, 120, 117, 190, 1, 2.00989
295, 5, horizontal, attraction, a-b-db, 5, 1, 3, 19, 135, 60, 58, 132, 60, 135, 3, 2.30945
295, 5, horizontal, attraction, a-b-da, 14, 2, 3, 20, 153, 83, 90, 165, 165, 90, 2, 1.76264
295, 5, horizontal, attraction, a-b-da, 2, 3, 3, 21, 120, 195, 193, 119, 195, 120, 3, 1.5117
295, 5, horizontal, filler, NA, 999, 999, 3, 22, 81, 73, 64, 59, 133, 126, 3, 1.47671
295, 5, horizontal, attraction, a-b-db, 9, 1, 3, 23, 135, 60, 60, 135, 57, 129, 3, 2.26234
295, 5, horizontal, filler, NA, 999, 999, 3, 24, 133, 69, 130, 174, 191, 156, 3, 1.5183
295, 5, horizontal, filler, NA, 999, 999, 3, 25, 123, 91, 92, 148, 152, 79, 2, 7.32452
295, 5, horizontal, attraction, a-b-db, 14, 3, 3, 26, 195, 120, 111, 181, 120, 195, 3, 2.22513
295, 5, horizontal, attraction, a-b-db, 9, 2, 3, 27, 90, 165, 86, 157, 165, 90, 3, 2.24476
295, 5, horizontal, attraction, a-b-da, 2, 2, 3, 28, 165, 90, 90, 165, 163, 89, 2, 1.51696
295, 5, horizontal, attraction, a-b-db, 5, 2, 3, 29, 90, 165, 165, 90, 88, 161, 1, 4.65367
295, 5, horizontal, attraction, a-b-db, 9, 3, 3, 30, 195, 120, 114, 186, 120, 195, 1, 1.21389
295, 5, horizontal, attraction, a-b-db, 14, 2, 3, 31, 83, 153, 90, 165, 165, 90, 3, 1.53299
295, 5, horizontal, filler, NA, 999, 999, 3, 32, 97, 89, 184, 146, 158, 188, 2, 1.19632
295, 5, horizontal, filler, NA, 999, 999, 3, 33, 87, 141, 116, 140, 78, 193, 2, 1.79046
295, 5, horizontal, attraction, a-b-db, 2, 2, 3, 34, 90, 165, 89, 163, 165, 90, 3, 1.44001
295, 5, horizontal, attraction, a-b-db, 9, 1, 4, 1, 135, 60, 60, 135, 57, 129, 2, 2.45922
295, 5, horizontal, attraction, a-b-db, 5, 1, 4, 2, 135, 60, 60, 135, 58, 132, 3, 5.06832
295, 5, horizontal, attraction, a-b-da, 2, 1, 4, 3, 135, 60, 60, 135, 134, 59, 2, 1.71594
295, 5, horizontal, attraction, a-b-db, 9, 2, 4, 4, 165, 90, 90, 165, 86, 157, 1, 1.73672
295, 5, horizontal, attraction, a-b-db, 5, 3, 4, 5, 120, 195, 195, 120, 117, 190, 2, 1.28066
295, 5, horizontal, attraction, a-b-db, 5, 2, 4, 6, 165, 90, 90, 165, 88, 161, 1, 1.46266
295, 5, horizontal, attraction, a-b-db, 14, 3, 4, 7, 195, 120, 120, 195, 111, 181, 1, 1.35073
295, 5, horizontal, filler, NA, 999, 999, 4, 8, 77, 107, 153, 89, 85, 182, 2, 2.66042
295, 5, horizontal, filler, NA, 999, 999, 4, 9, 81, 75, 71, 121, 87, 60, 2, 3.40977
295, 5, horizontal, attraction, a-b-da, 2, 3, 4, 10, 120, 195, 195, 120, 193, 119, 1, 2.78254
295, 5, horizontal, attraction, a-b-db, 2, 2, 4, 11, 89, 163, 90, 165, 165, 90, 2, 12.153
295, 5, horizontal, attraction, a-b-da, 9, 1, 4, 12, 129, 57, 135, 60, 60, 135, 3, 2.19768
295, 5, horizontal, attraction, a-b-db, 2, 3, 4, 13, 119, 193, 195, 120, 120, 195, 2, 2.11192
295, 5, horizontal, attraction, a-b-da, 14, 2, 4, 14, 165, 90, 153, 83, 90, 165, 1, 2.88011
295, 5, horizontal, attraction, a-b-db, 2, 1, 4, 15, 135, 60, 59, 134, 60, 135, 2, 1.7659
295, 5, horizontal, filler, NA, 999, 999, 4, 16, 82, 142, 139, 165, 142, 174, 3, 1.32367
295, 5, horizontal, filler, NA, 999, 999, 4, 17, 160, 98, 150, 86, 191, 167, 3, 1.24928
295, 5, horizontal, filler, NA, 999, 999, 4, 18, 148, 137, 121, 126, 123, 96, 1, 1.3613
295, 5, horizontal, attraction, a-b-da, 9, 2, 4, 19, 157, 86, 90, 165, 165, 90, 2, 1.85256
295, 5, horizontal, attraction, a-b-da, 5, 3, 4, 20, 190, 117, 120, 195, 195, 120, 2, 1.71777
295, 5, horizontal, filler, NA, 999, 999, 4, 21, 188, 78, 128, 127, 112, 56, 2, 2.17388
295, 5, horizontal, attraction, a-b-da, 14, 3, 4, 22, 120, 195, 195, 120, 181, 111, 1, 1.95883
295, 5, horizontal, attraction, a-b-da, 5, 1, 4, 23, 60, 135, 132, 58, 135, 60, 1, 2.33351
295, 5, horizontal, attraction, a-b-db, 9, 3, 4, 24, 114, 186, 195, 120, 120, 195, 3, 4.13099
295, 5, horizontal, attraction, a-b-da, 2, 2, 4, 25, 165, 90, 90, 165, 163, 89, 2, 2.59867
295, 5, horizontal, attraction, a-b-da, 9, 3, 4, 26, 195, 120, 120, 195, 186, 114, 3, 1.81893
295, 5, horizontal, filler, NA, 999, 999, 4, 27, 128, 62, 188, 165, 163, 79, 2, 4.26101
295, 5, horizontal, attraction, a-b-da, 5, 2, 4, 28, 90, 165, 165, 90, 161, 88, 1, 2.35742
295, 5, horizontal, filler, NA, 999, 999, 4, 29, 176, 97, 183, 66, 89, 189, 1, 6.06053
295, 5, horizontal, attraction, a-b-da, 14, 1, 4, 30, 125, 56, 135, 60, 60, 135, 3, 1.92164
295, 5, horizontal, filler, NA, 999, 999, 4, 31, 173, 68, 76, 81, 177, 106, 3, 1.70484
295, 5, horizontal, filler, NA, 999, 999, 4, 32, 110, 92, 124, 106, 65, 94, 2, 2.18227
295, 5, horizontal, attraction, a-b-db, 14, 1, 4, 33, 60, 135, 56, 125, 135, 60, 3, 1.92353
295, 5, horizontal, attraction, a-b-db, 14, 2, 4, 34, 90, 165, 83, 153, 165, 90, 1, 1.37656
