sub_n, computer_n, disp_cond, effect, set, distance, diag, block_n, trial_n, h1, w1, h2, w2, h3, w3, choice, rt 
256, 6, triangle, practice, NA, 999, 999, 0, 1, 91, 158, 139, 67, 151, 113, 3, 4.91038
256, 6, triangle, practice, NA, 999, 999, 0, 2, 116, 102, 174, 83, 86, 88, 2, 4.06735
256, 6, triangle, practice, NA, 999, 999, 0, 3, 132, 180, 141, 146, 109, 123, 1, 3.29635
256, 6, triangle, attraction, a-b-db, 14, 3, 1, 1, 195, 120, 111, 181, 120, 195, 1, 5.05207
256, 6, triangle, attraction, a-b-da, 14, 1, 1, 2, 60, 135, 135, 60, 125, 56, 2, 4.06078
256, 6, triangle, attraction, a-b-da, 5, 2, 1, 3, 161, 88, 165, 90, 90, 165, 2, 4.87645
256, 6, triangle, filler, NA, 999, 999, 1, 4, 80, 179, 147, 84, 71, 95, 1, 2.53037
256, 6, triangle, attraction, a-b-da, 2, 2, 1, 5, 165, 90, 163, 89, 90, 165, 1, 5.44048
256, 6, triangle, filler, NA, 999, 999, 1, 6, 163, 99, 85, 163, 165, 112, 3, 3.95024
256, 6, triangle, filler, NA, 999, 999, 1, 7, 150, 127, 148, 73, 133, 148, 3, 4.37774
256, 6, triangle, attraction, a-b-da, 2, 3, 1, 8, 193, 119, 120, 195, 195, 120, 3, 8.66119
256, 6, triangle, filler, NA, 999, 999, 1, 9, 64, 98, 190, 178, 109, 155, 2, 2.22837
256, 6, triangle, attraction, a-b-da, 9, 2, 1, 10, 165, 90, 90, 165, 157, 86, 1, 6.66803
256, 6, triangle, filler, NA, 999, 999, 1, 11, 98, 66, 158, 149, 167, 143, 3, 2.07431
256, 6, triangle, filler, NA, 999, 999, 1, 12, 174, 63, 158, 153, 161, 180, 3, 1.58365
256, 6, triangle, filler, NA, 999, 999, 1, 13, 134, 149, 66, 193, 83, 91, 1, 8.45821
256, 6, triangle, attraction, a-b-da, 2, 1, 1, 14, 135, 60, 60, 135, 134, 59, 3, 2.4909
256, 6, triangle, attraction, a-b-db, 2, 3, 1, 15, 120, 195, 195, 120, 119, 193, 3, 3.56781
256, 6, triangle, attraction, a-b-da, 14, 3, 1, 16, 120, 195, 181, 111, 195, 120, 3, 5.36507
256, 6, triangle, attraction, a-b-da, 9, 3, 1, 17, 186, 114, 195, 120, 120, 195, 2, 2.35078
256, 6, triangle, attraction, a-b-da, 5, 1, 1, 18, 135, 60, 60, 135, 132, 58, 3, 2.993
256, 6, triangle, filler, NA, 999, 999, 1, 19, 133, 145, 153, 185, 188, 157, 2, 3.12628
256, 6, triangle, attraction, a-b-db, 14, 1, 1, 20, 135, 60, 56, 125, 60, 135, 1, 3.9135
256, 6, triangle, attraction, a-b-db, 9, 2, 1, 21, 86, 157, 165, 90, 90, 165, 3, 7.73528
256, 6, triangle, attraction, a-b-db, 2, 2, 1, 22, 90, 165, 165, 90, 89, 163, 2, 3.57803
256, 6, triangle, filler, NA, 999, 999, 1, 23, 189, 117, 86, 123, 188, 133, 3, 3.32483
256, 6, triangle, filler, NA, 999, 999, 1, 24, 87, 93, 151, 104, 88, 93, 2, 2.37768
256, 6, triangle, attraction, a-b-db, 9, 3, 1, 25, 114, 186, 120, 195, 195, 120, 2, 6.40299
256, 6, triangle, attraction, a-b-db, 14, 2, 1, 26, 165, 90, 90, 165, 83, 153, 1, 2.27153
256, 6, triangle, attraction, a-b-db, 2, 1, 1, 27, 60, 135, 59, 134, 135, 60, 2, 3.1399
256, 6, triangle, attraction, a-b-da, 14, 2, 1, 28, 165, 90, 90, 165, 153, 83, 1, 5.44891
256, 6, triangle, attraction, a-b-db, 5, 3, 1, 29, 117, 190, 195, 120, 120, 195, 2, 2.40227
256, 6, triangle, attraction, a-b-db, 5, 2, 1, 30, 165, 90, 88, 161, 90, 165, 1, 3.61942
256, 6, triangle, attraction, a-b-da, 5, 3, 1, 31, 195, 120, 120, 195, 190, 117, 1, 3.29692
256, 6, triangle, attraction, a-b-db, 9, 1, 1, 32, 135, 60, 57, 129, 60, 135, 1, 3.12888
256, 6, triangle, attraction, a-b-da, 9, 1, 1, 33, 60, 135, 129, 57, 135, 60, 3, 3.81425
256, 6, triangle, attraction, a-b-db, 5, 1, 1, 34, 58, 132, 60, 135, 135, 60, 3, 9.44589
256, 6, triangle, attraction, a-b-da, 14, 3, 2, 1, 181, 111, 120, 195, 195, 120, 2, 4.16649
256, 6, triangle, attraction, a-b-da, 2, 1, 2, 2, 60, 135, 135, 60, 134, 59, 2, 5.76798
256, 6, triangle, filler, NA, 999, 999, 2, 3, 71, 128, 75, 139, 96, 78, 2, 5.16998
256, 6, triangle, filler, NA, 999, 999, 2, 4, 131, 92, 90, 148, 187, 123, 3, 1.87775
256, 6, triangle, filler, NA, 999, 999, 2, 5, 58, 76, 176, 194, 84, 135, 2, 1.50806
256, 6, triangle, filler, NA, 999, 999, 2, 6, 138, 122, 83, 70, 156, 56, 1, 3.02638
256, 6, triangle, attraction, a-b-da, 9, 1, 2, 7, 60, 135, 135, 60, 129, 57, 2, 3.60293
256, 6, triangle, attraction, a-b-db, 9, 3, 2, 8, 120, 195, 195, 120, 114, 186, 1, 5.78753
256, 6, triangle, attraction, a-b-db, 14, 3, 2, 9, 120, 195, 195, 120, 111, 181, 2, 2.61294
256, 6, triangle, filler, NA, 999, 999, 2, 10, 117, 117, 85, 164, 178, 94, 3, 3.07208
256, 6, triangle, filler, NA, 999, 999, 2, 11, 183, 76, 62, 162, 137, 192, 3, 1.84635
256, 6, triangle, attraction, a-b-da, 5, 1, 2, 12, 132, 58, 135, 60, 60, 135, 2, 3.34552
256, 6, triangle, attraction, a-b-db, 14, 1, 2, 13, 60, 135, 135, 60, 56, 125, 2, 7.5864
256, 6, triangle, attraction, a-b-db, 2, 3, 2, 14, 119, 193, 120, 195, 195, 120, 1, 13.0838
256, 6, triangle, attraction, a-b-da, 2, 2, 2, 15, 165, 90, 163, 89, 90, 165, 3, 4.29762
256, 6, triangle, attraction, a-b-db, 5, 1, 2, 16, 135, 60, 58, 132, 60, 135, 1, 4.35736
256, 6, triangle, attraction, a-b-da, 5, 3, 2, 17, 190, 117, 120, 195, 195, 120, 3, 6.90532
256, 6, triangle, attraction, a-b-db, 5, 2, 2, 18, 165, 90, 88, 161, 90, 165, 1, 4.96735
256, 6, triangle, attraction, a-b-da, 14, 1, 2, 19, 60, 135, 125, 56, 135, 60, 1, 3.42505
256, 6, triangle, attraction, a-b-da, 5, 2, 2, 20, 90, 165, 165, 90, 161, 88, 2, 5.60997
256, 6, triangle, filler, NA, 999, 999, 2, 21, 102, 110, 64, 137, 175, 153, 3, 1.64113
256, 6, triangle, attraction, a-b-db, 5, 3, 2, 22, 117, 190, 120, 195, 195, 120, 3, 5.80391
256, 6, triangle, filler, NA, 999, 999, 2, 23, 68, 193, 67, 147, 164, 154, 3, 6.94021
256, 6, triangle, filler, NA, 999, 999, 2, 24, 120, 102, 60, 64, 89, 187, 3, 4.04609
256, 6, triangle, attraction, a-b-da, 2, 3, 2, 25, 120, 195, 193, 119, 195, 120, 3, 13.21
256, 6, triangle, attraction, a-b-da, 14, 2, 2, 26, 165, 90, 90, 165, 153, 83, 2, 1.95796
256, 6, triangle, attraction, a-b-db, 14, 2, 2, 27, 83, 153, 90, 165, 165, 90, 2, 3.13009
256, 6, triangle, attraction, a-b-da, 9, 2, 2, 28, 157, 86, 165, 90, 90, 165, 2, 4.9991
256, 6, triangle, attraction, a-b-db, 9, 1, 2, 29, 135, 60, 57, 129, 60, 135, 3, 1.96876
256, 6, triangle, filler, NA, 999, 999, 2, 30, 64, 152, 61, 140, 140, 56, 1, 3.47623
256, 6, triangle, attraction, a-b-db, 9, 2, 2, 31, 165, 90, 86, 157, 90, 165, 1, 2.074
256, 6, triangle, attraction, a-b-db, 2, 1, 2, 32, 135, 60, 59, 134, 60, 135, 2, 2.97785
256, 6, triangle, attraction, a-b-da, 9, 3, 2, 33, 195, 120, 186, 114, 120, 195, 1, 3.2702
256, 6, triangle, attraction, a-b-db, 2, 2, 2, 34, 89, 163, 165, 90, 90, 165, 2, 4.01294
256, 6, triangle, attraction, a-b-da, 14, 1, 3, 1, 125, 56, 60, 135, 135, 60, 2, 2.37294
256, 6, triangle, attraction, a-b-db, 14, 3, 3, 2, 111, 181, 120, 195, 195, 120, 2, 9.62501
256, 6, triangle, filler, NA, 999, 999, 3, 3, 107, 73, 80, 147, 115, 65, 2, 2.09439
256, 6, triangle, attraction, a-b-da, 9, 3, 3, 4, 195, 120, 120, 195, 186, 114, 2, 6.16575
256, 6, triangle, filler, NA, 999, 999, 3, 5, 66, 110, 121, 136, 100, 103, 2, 3.02562
256, 6, triangle, attraction, a-b-db, 5, 2, 3, 6, 88, 161, 90, 165, 165, 90, 3, 8.08188
256, 6, triangle, attraction, a-b-da, 9, 2, 3, 7, 157, 86, 165, 90, 90, 165, 3, 6.76634
256, 6, triangle, attraction, a-b-da, 14, 2, 3, 8, 153, 83, 165, 90, 90, 165, 2, 1.70235
256, 6, triangle, attraction, a-b-da, 9, 1, 3, 9, 60, 135, 135, 60, 129, 57, 2, 3.05663
256, 6, triangle, attraction, a-b-db, 14, 2, 3, 10, 83, 153, 90, 165, 165, 90, 3, 3.19802
256, 6, triangle, attraction, a-b-da, 5, 3, 3, 11, 120, 195, 195, 120, 190, 117, 2, 6.08612
256, 6, triangle, attraction, a-b-db, 9, 1, 3, 12, 60, 135, 135, 60, 57, 129, 2, 4.43756
256, 6, triangle, filler, NA, 999, 999, 3, 13, 187, 126, 90, 172, 69, 140, 1, 1.75576
256, 6, triangle, filler, NA, 999, 999, 3, 14, 147, 166, 134, 101, 138, 98, 1, 2.46654
256, 6, triangle, filler, NA, 999, 999, 3, 15, 75, 111, 80, 167, 93, 157, 2, 6.12068
256, 6, triangle, attraction, a-b-db, 14, 1, 3, 16, 56, 125, 60, 135, 135, 60, 2, 3.35534
256, 6, triangle, attraction, a-b-db, 9, 3, 3, 17, 195, 120, 120, 195, 114, 186, 2, 3.5104
256, 6, triangle, attraction, a-b-da, 2, 2, 3, 18, 90, 165, 165, 90, 163, 89, 3, 5.17991
256, 6, triangle, attraction, a-b-db, 2, 3, 3, 19, 195, 120, 120, 195, 119, 193, 2, 3.94998
256, 6, triangle, attraction, a-b-da, 14, 3, 3, 20, 181, 111, 120, 195, 195, 120, 3, 2.47297
256, 6, triangle, filler, NA, 999, 999, 3, 21, 169, 137, 114, 97, 188, 178, 3, 1.47413
256, 6, triangle, attraction, a-b-db, 5, 1, 3, 22, 58, 132, 135, 60, 60, 135, 3, 6.09763
256, 6, triangle, attraction, a-b-da, 5, 2, 3, 23, 161, 88, 90, 165, 165, 90, 2, 4.27038
256, 6, triangle, attraction, a-b-db, 2, 1, 3, 24, 60, 135, 135, 60, 59, 134, 2, 9.95729
256, 6, triangle, attraction, a-b-da, 2, 1, 3, 25, 135, 60, 134, 59, 60, 135, 2, 2.29428
256, 6, triangle, attraction, a-b-db, 2, 2, 3, 26, 165, 90, 90, 165, 89, 163, 3, 2.26404
256, 6, triangle, attraction, a-b-db, 5, 3, 3, 27, 120, 195, 117, 190, 195, 120, 1, 2.57379
256, 6, triangle, attraction, a-b-db, 9, 2, 3, 28, 90, 165, 165, 90, 86, 157, 1, 1.81845
256, 6, triangle, filler, NA, 999, 999, 3, 29, 100, 126, 95, 145, 143, 75, 2, 1.72225
256, 6, triangle, attraction, a-b-da, 2, 3, 3, 30, 193, 119, 120, 195, 195, 120, 2, 2.26211
256, 6, triangle, filler, NA, 999, 999, 3, 31, 114, 146, 105, 108, 138, 116, 3, 1.97555
256, 6, triangle, filler, NA, 999, 999, 3, 32, 131, 186, 141, 103, 164, 134, 1, 2.07543
256, 6, triangle, filler, NA, 999, 999, 3, 33, 184, 181, 89, 149, 182, 178, 1, 1.91447
256, 6, triangle, attraction, a-b-da, 5, 1, 3, 34, 60, 135, 135, 60, 132, 58, 2, 1.88603
256, 6, triangle, attraction, a-b-da, 5, 2, 4, 1, 90, 165, 161, 88, 165, 90, 3, 5.88663
256, 6, triangle, attraction, a-b-db, 14, 1, 4, 2, 60, 135, 135, 60, 56, 125, 1, 3.13907
256, 6, triangle, attraction, a-b-da, 5, 1, 4, 3, 60, 135, 135, 60, 132, 58, 2, 2.62277
256, 6, triangle, attraction, a-b-db, 9, 3, 4, 4, 114, 186, 195, 120, 120, 195, 3, 3.67932
256, 6, triangle, filler, NA, 999, 999, 4, 5, 133, 138, 191, 158, 110, 79, 2, 1.4885
256, 6, triangle, attraction, a-b-da, 5, 3, 4, 6, 120, 195, 190, 117, 195, 120, 3, 5.05604
256, 6, triangle, filler, NA, 999, 999, 4, 7, 96, 118, 65, 106, 171, 86, 3, 3.74869
256, 6, triangle, filler, NA, 999, 999, 4, 8, 133, 186, 131, 74, 181, 164, 3, 2.25673
256, 6, triangle, attraction, a-b-db, 5, 3, 4, 9, 120, 195, 195, 120, 117, 190, 2, 4.6906
256, 6, triangle, attraction, a-b-db, 14, 3, 4, 10, 111, 181, 120, 195, 195, 120, 2, 6.32598
256, 6, triangle, attraction, a-b-da, 2, 2, 4, 11, 165, 90, 163, 89, 90, 165, 1, 3.91543
256, 6, triangle, filler, NA, 999, 999, 4, 12, 67, 167, 124, 76, 62, 186, 3, 2.8953
256, 6, triangle, attraction, a-b-da, 14, 2, 4, 13, 90, 165, 153, 83, 165, 90, 3, 3.96582
256, 6, triangle, attraction, a-b-db, 9, 2, 4, 14, 90, 165, 165, 90, 86, 157, 1, 2.35149
256, 6, triangle, filler, NA, 999, 999, 4, 15, 165, 112, 132, 140, 126, 193, 3, 2.36608
256, 6, triangle, attraction, a-b-da, 9, 3, 4, 16, 195, 120, 186, 114, 120, 195, 1, 2.13618
256, 6, triangle, filler, NA, 999, 999, 4, 17, 143, 103, 126, 89, 82, 154, 1, 1.33231
256, 6, triangle, attraction, a-b-db, 14, 2, 4, 18, 83, 153, 90, 165, 165, 90, 2, 2.24977
256, 6, triangle, attraction, a-b-da, 14, 3, 4, 19, 195, 120, 181, 111, 120, 195, 3, 3.59316
256, 6, triangle, attraction, a-b-db, 5, 2, 4, 20, 90, 165, 165, 90, 88, 161, 1, 3.19654
256, 6, triangle, attraction, a-b-db, 2, 1, 4, 21, 135, 60, 60, 135, 59, 134, 2, 1.72627
256, 6, triangle, attraction, a-b-da, 2, 3, 4, 22, 195, 120, 193, 119, 120, 195, 3, 2.62005
256, 6, triangle, attraction, a-b-da, 9, 1, 4, 23, 60, 135, 135, 60, 129, 57, 2, 2.41905
256, 6, triangle, attraction, a-b-db, 2, 3, 4, 24, 120, 195, 119, 193, 195, 120, 3, 1.88517
256, 6, triangle, attraction, a-b-da, 14, 1, 4, 25, 135, 60, 60, 135, 125, 56, 2, 3.59009
256, 6, triangle, filler, NA, 999, 999, 4, 26, 63, 94, 87, 113, 121, 150, 3, 1.84729
256, 6, triangle, attraction, a-b-db, 9, 1, 4, 27, 60, 135, 57, 129, 135, 60, 1, 2.99048
256, 6, triangle, filler, NA, 999, 999, 4, 28, 86, 58, 69, 124, 58, 177, 3, 1.52189
256, 6, triangle, filler, NA, 999, 999, 4, 29, 97, 176, 59, 168, 97, 155, 1, 3.33321
256, 6, triangle, attraction, a-b-da, 2, 1, 4, 30, 60, 135, 134, 59, 135, 60, 2, 3.55414
256, 6, triangle, attraction, a-b-db, 5, 1, 4, 31, 60, 135, 135, 60, 58, 132, 1, 1.96618
256, 6, triangle, attraction, a-b-da, 9, 2, 4, 32, 165, 90, 90, 165, 157, 86, 1, 6.83346
256, 6, triangle, attraction, a-b-db, 2, 2, 4, 33, 89, 163, 90, 165, 165, 90, 2, 2.00772
256, 6, triangle, filler, NA, 999, 999, 4, 34, 132, 88, 138, 187, 107, 99, 2, 1.3863
