sub_n, computer_n, disp_cond, effect, set, distance, diag, block_n, trial_n, h1, w1, h2, w2, h3, w3, choice, rt 
197, 6, horizontal, practice, NA, 999, 999, 0, 1, 81, 161, 86, 71, 173, 121, 3, 2.66967
197, 6, horizontal, practice, NA, 999, 999, 0, 2, 89, 102, 180, 152, 156, 84, 2, 2.7167
197, 6, horizontal, practice, NA, 999, 999, 0, 3, 161, 148, 165, 130, 144, 73, 1, 5.12074
197, 6, horizontal, filler, NA, 999, 999, 1, 1, 125, 171, 79, 84, 81, 93, 1, 2.75615
197, 6, horizontal, attraction, a-b-db, 5, 3, 1, 2, 195, 120, 120, 195, 117, 190, 3, 7.60716
197, 6, horizontal, attraction, a-b-da, 2, 1, 1, 3, 134, 59, 60, 135, 135, 60, 2, 5.80038
197, 6, horizontal, filler, NA, 999, 999, 1, 4, 72, 125, 159, 70, 149, 107, 3, 2.3938
197, 6, horizontal, attraction, a-b-db, 14, 1, 1, 5, 56, 125, 60, 135, 135, 60, 2, 1.98057
197, 6, horizontal, attraction, a-b-da, 14, 1, 1, 6, 125, 56, 135, 60, 60, 135, 2, 4.43245
197, 6, horizontal, attraction, a-b-da, 5, 2, 1, 7, 90, 165, 161, 88, 165, 90, 1, 6.42978
197, 6, horizontal, attraction, a-b-db, 2, 3, 1, 8, 120, 195, 195, 120, 119, 193, 1, 4.57608
197, 6, horizontal, filler, NA, 999, 999, 1, 9, 179, 88, 56, 194, 155, 172, 3, 1.95327
197, 6, horizontal, attraction, a-b-da, 2, 2, 1, 10, 163, 89, 90, 165, 165, 90, 2, 1.98959
197, 6, horizontal, attraction, a-b-da, 9, 3, 1, 11, 186, 114, 195, 120, 120, 195, 2, 3.15221
197, 6, horizontal, attraction, a-b-db, 9, 1, 1, 12, 57, 129, 135, 60, 60, 135, 1, 2.47544
197, 6, horizontal, filler, NA, 999, 999, 1, 13, 68, 172, 68, 152, 177, 66, 3, 6.65884
197, 6, horizontal, attraction, a-b-da, 9, 1, 1, 14, 129, 57, 60, 135, 135, 60, 2, 2.85864
197, 6, horizontal, filler, NA, 999, 999, 1, 15, 121, 180, 91, 66, 60, 164, 1, 1.29656
197, 6, horizontal, attraction, a-b-db, 5, 2, 1, 16, 90, 165, 88, 161, 165, 90, 2, 2.30411
197, 6, horizontal, attraction, a-b-db, 14, 3, 1, 17, 120, 195, 195, 120, 111, 181, 1, 2.22338
197, 6, horizontal, attraction, a-b-db, 5, 1, 1, 18, 58, 132, 60, 135, 135, 60, 2, 4.29592
197, 6, horizontal, attraction, a-b-da, 5, 3, 1, 19, 120, 195, 195, 120, 190, 117, 1, 4.12626
197, 6, horizontal, attraction, a-b-db, 14, 2, 1, 20, 90, 165, 165, 90, 83, 153, 1, 2.12197
197, 6, horizontal, attraction, a-b-da, 14, 2, 1, 21, 153, 83, 165, 90, 90, 165, 2, 1.96021
197, 6, horizontal, attraction, a-b-db, 9, 2, 1, 22, 86, 157, 165, 90, 90, 165, 3, 1.85984
197, 6, horizontal, attraction, a-b-da, 14, 3, 1, 23, 120, 195, 181, 111, 195, 120, 3, 4.62724
197, 6, horizontal, filler, NA, 999, 999, 1, 24, 162, 89, 177, 106, 142, 92, 2, 2.97157
197, 6, horizontal, filler, NA, 999, 999, 1, 25, 75, 82, 71, 136, 175, 161, 3, 1.87977
197, 6, horizontal, attraction, a-b-da, 5, 1, 1, 26, 132, 58, 60, 135, 135, 60, 3, 5.44012
197, 6, horizontal, filler, NA, 999, 999, 1, 27, 67, 157, 189, 80, 144, 181, 3, 1.3674
197, 6, horizontal, attraction, a-b-da, 9, 2, 1, 28, 165, 90, 157, 86, 90, 165, 1, 4.57724
197, 6, horizontal, filler, NA, 999, 999, 1, 29, 120, 84, 101, 70, 113, 161, 3, 1.37987
197, 6, horizontal, attraction, a-b-da, 2, 3, 1, 30, 195, 120, 120, 195, 193, 119, 2, 2.6234
197, 6, horizontal, attraction, a-b-db, 9, 3, 1, 31, 195, 120, 114, 186, 120, 195, 3, 2.76125
197, 6, horizontal, attraction, a-b-db, 2, 1, 1, 32, 135, 60, 59, 134, 60, 135, 1, 2.1966
197, 6, horizontal, attraction, a-b-db, 2, 2, 1, 33, 90, 165, 165, 90, 89, 163, 2, 3.68692
197, 6, horizontal, filler, NA, 999, 999, 1, 34, 167, 152, 66, 162, 66, 70, 1, 1.49243
197, 6, horizontal, attraction, a-b-db, 14, 3, 2, 1, 195, 120, 111, 181, 120, 195, 3, 1.70958
197, 6, horizontal, attraction, a-b-db, 2, 1, 2, 2, 60, 135, 59, 134, 135, 60, 2, 3.57663
197, 6, horizontal, attraction, a-b-da, 2, 2, 2, 3, 165, 90, 163, 89, 90, 165, 3, 5.53599
197, 6, horizontal, attraction, a-b-da, 9, 1, 2, 4, 135, 60, 129, 57, 60, 135, 1, 2.80814
197, 6, horizontal, attraction, a-b-da, 14, 3, 2, 5, 181, 111, 120, 195, 195, 120, 2, 1.79571
197, 6, horizontal, attraction, a-b-da, 9, 3, 2, 6, 186, 114, 195, 120, 120, 195, 3, 1.55015
197, 6, horizontal, attraction, a-b-db, 2, 2, 2, 7, 165, 90, 89, 163, 90, 165, 3, 3.42552
197, 6, horizontal, filler, NA, 999, 999, 2, 8, 150, 149, 56, 155, 165, 157, 3, 1.47407
197, 6, horizontal, attraction, a-b-da, 14, 1, 2, 9, 125, 56, 135, 60, 60, 135, 3, 5.76327
197, 6, horizontal, filler, NA, 999, 999, 2, 10, 102, 74, 154, 176, 192, 144, 2, 1.3317
197, 6, horizontal, attraction, a-b-db, 9, 2, 2, 11, 90, 165, 86, 157, 165, 90, 3, 2.16983
197, 6, horizontal, filler, NA, 999, 999, 2, 12, 141, 154, 143, 64, 76, 76, 1, 1.25321
197, 6, horizontal, attraction, a-b-db, 14, 1, 2, 13, 56, 125, 135, 60, 60, 135, 3, 1.56653
197, 6, horizontal, attraction, a-b-db, 14, 2, 2, 14, 90, 165, 83, 153, 165, 90, 1, 2.31908
197, 6, horizontal, attraction, a-b-db, 9, 1, 2, 15, 57, 129, 60, 135, 135, 60, 2, 2.85442
197, 6, horizontal, attraction, a-b-db, 9, 3, 2, 16, 195, 120, 120, 195, 114, 186, 2, 2.65414
197, 6, horizontal, filler, NA, 999, 999, 2, 17, 129, 170, 57, 161, 83, 153, 1, 1.37274
197, 6, horizontal, filler, NA, 999, 999, 2, 18, 143, 128, 168, 116, 83, 144, 2, 1.57681
197, 6, horizontal, attraction, a-b-da, 5, 3, 2, 19, 195, 120, 190, 117, 120, 195, 3, 1.5408
197, 6, horizontal, attraction, a-b-db, 5, 2, 2, 20, 88, 161, 165, 90, 90, 165, 1, 1.13026
197, 6, horizontal, filler, NA, 999, 999, 2, 21, 194, 82, 60, 171, 157, 140, 3, 1.51912
197, 6, horizontal, filler, NA, 999, 999, 2, 22, 110, 163, 139, 66, 150, 74, 1, 1.43491
197, 6, horizontal, attraction, a-b-da, 5, 2, 2, 23, 161, 88, 90, 165, 165, 90, 1, 6.99651
197, 6, horizontal, filler, NA, 999, 999, 2, 24, 170, 146, 187, 174, 83, 131, 2, 1.5191
197, 6, horizontal, attraction, a-b-db, 2, 3, 2, 25, 195, 120, 120, 195, 119, 193, 3, 1.98843
197, 6, horizontal, filler, NA, 999, 999, 2, 26, 104, 121, 60, 138, 113, 135, 3, 2.21615
197, 6, horizontal, attraction, a-b-da, 2, 1, 2, 27, 135, 60, 60, 135, 134, 59, 2, 3.2544
197, 6, horizontal, attraction, a-b-da, 5, 1, 2, 28, 60, 135, 132, 58, 135, 60, 1, 2.22323
197, 6, horizontal, attraction, a-b-da, 14, 2, 2, 29, 153, 83, 165, 90, 90, 165, 2, 1.64783
197, 6, horizontal, attraction, a-b-da, 2, 3, 2, 30, 120, 195, 195, 120, 193, 119, 1, 2.06518
197, 6, horizontal, attraction, a-b-db, 5, 3, 2, 31, 120, 195, 195, 120, 117, 190, 3, 1.77589
197, 6, horizontal, attraction, a-b-db, 5, 1, 2, 32, 60, 135, 58, 132, 135, 60, 3, 5.48258
197, 6, horizontal, filler, NA, 999, 999, 2, 33, 138, 129, 125, 129, 174, 159, 3, 1.42441
197, 6, horizontal, attraction, a-b-da, 9, 2, 2, 34, 157, 86, 165, 90, 90, 165, 2, 2.25776
197, 6, horizontal, filler, NA, 999, 999, 3, 1, 81, 162, 89, 130, 106, 161, 3, 1.37023
197, 6, horizontal, attraction, a-b-db, 9, 1, 3, 2, 57, 129, 60, 135, 135, 60, 2, 3.42196
197, 6, horizontal, filler, NA, 999, 999, 3, 3, 116, 141, 135, 60, 144, 178, 3, 1.33481
197, 6, horizontal, attraction, a-b-db, 14, 2, 3, 4, 165, 90, 83, 153, 90, 165, 1, 2.0905
197, 6, horizontal, attraction, a-b-da, 2, 1, 3, 5, 60, 135, 134, 59, 135, 60, 2, 3.43432
197, 6, horizontal, filler, NA, 999, 999, 3, 6, 121, 77, 151, 91, 76, 93, 3, 3.31353
197, 6, horizontal, filler, NA, 999, 999, 3, 7, 142, 156, 143, 62, 175, 101, 1, 1.57519
197, 6, horizontal, attraction, a-b-da, 14, 3, 3, 8, 120, 195, 195, 120, 181, 111, 1, 1.68953
197, 6, horizontal, attraction, a-b-da, 2, 3, 3, 9, 193, 119, 195, 120, 120, 195, 3, 1.72208
197, 6, horizontal, attraction, a-b-db, 9, 2, 3, 10, 90, 165, 165, 90, 86, 157, 2, 2.96824
197, 6, horizontal, attraction, a-b-db, 14, 1, 3, 11, 60, 135, 135, 60, 56, 125, 2, 2.43615
197, 6, horizontal, filler, NA, 999, 999, 3, 12, 104, 170, 89, 116, 89, 146, 1, 1.43569
197, 6, horizontal, attraction, a-b-db, 2, 3, 3, 13, 120, 195, 195, 120, 119, 193, 3, 1.70943
197, 6, horizontal, attraction, a-b-da, 14, 2, 3, 14, 165, 90, 153, 83, 90, 165, 1, 3.37111
197, 6, horizontal, attraction, a-b-db, 2, 2, 3, 15, 90, 165, 165, 90, 89, 163, 1, 1.79621
197, 6, horizontal, attraction, a-b-db, 2, 1, 3, 16, 59, 134, 135, 60, 60, 135, 2, 1.79942
197, 6, horizontal, attraction, a-b-db, 5, 2, 3, 17, 165, 90, 88, 161, 90, 165, 3, 1.58568
197, 6, horizontal, attraction, a-b-da, 9, 3, 3, 18, 186, 114, 120, 195, 195, 120, 2, 2.20397
197, 6, horizontal, attraction, a-b-da, 5, 3, 3, 19, 190, 117, 195, 120, 120, 195, 3, 1.22957
197, 6, horizontal, attraction, a-b-da, 5, 2, 3, 20, 90, 165, 165, 90, 161, 88, 1, 2.27967
197, 6, horizontal, attraction, a-b-db, 14, 3, 3, 21, 120, 195, 111, 181, 195, 120, 3, 1.48579
197, 6, horizontal, attraction, a-b-da, 9, 1, 3, 22, 60, 135, 129, 57, 135, 60, 3, 3.59786
197, 6, horizontal, attraction, a-b-db, 5, 1, 3, 23, 135, 60, 60, 135, 58, 132, 2, 1.92656
197, 6, horizontal, attraction, a-b-da, 5, 1, 3, 24, 135, 60, 60, 135, 132, 58, 2, 2.50963
197, 6, horizontal, filler, NA, 999, 999, 3, 25, 118, 175, 160, 93, 151, 165, 3, 3.55501
197, 6, horizontal, filler, NA, 999, 999, 3, 26, 123, 128, 110, 163, 146, 157, 3, 1.55137
197, 6, horizontal, filler, NA, 999, 999, 3, 27, 81, 59, 104, 67, 94, 74, 2, 2.29958
197, 6, horizontal, filler, NA, 999, 999, 3, 28, 123, 109, 162, 107, 172, 148, 3, 1.47179
197, 6, horizontal, attraction, a-b-da, 2, 2, 3, 29, 165, 90, 163, 89, 90, 165, 3, 2.42438
197, 6, horizontal, filler, NA, 999, 999, 3, 30, 131, 149, 195, 189, 97, 60, 2, 2.40037
197, 6, horizontal, attraction, a-b-da, 9, 2, 3, 31, 165, 90, 90, 165, 157, 86, 1, 2.05142
197, 6, horizontal, attraction, a-b-da, 14, 1, 3, 32, 125, 56, 135, 60, 60, 135, 2, 2.18645
197, 6, horizontal, attraction, a-b-db, 5, 3, 3, 33, 195, 120, 117, 190, 120, 195, 1, 2.03128
197, 6, horizontal, attraction, a-b-db, 9, 3, 3, 34, 114, 186, 120, 195, 195, 120, 2, 1.47805
197, 6, horizontal, attraction, a-b-da, 5, 3, 4, 1, 195, 120, 190, 117, 120, 195, 1, 5.43071
197, 6, horizontal, attraction, a-b-db, 14, 1, 4, 2, 56, 125, 60, 135, 135, 60, 2, 1.92554
197, 6, horizontal, filler, NA, 999, 999, 4, 3, 132, 77, 137, 182, 180, 137, 2, 1.55365
197, 6, horizontal, attraction, a-b-da, 14, 3, 4, 4, 120, 195, 181, 111, 195, 120, 1, 3.63268
197, 6, horizontal, filler, NA, 999, 999, 4, 5, 138, 187, 103, 61, 61, 128, 1, 1.48617
197, 6, horizontal, attraction, a-b-db, 9, 1, 4, 6, 135, 60, 57, 129, 60, 135, 3, 1.4794
197, 6, horizontal, filler, NA, 999, 999, 4, 7, 67, 116, 119, 145, 129, 195, 3, 1.39003
197, 6, horizontal, filler, NA, 999, 999, 4, 8, 141, 148, 81, 140, 179, 93, 1, 1.65554
197, 6, horizontal, attraction, a-b-db, 14, 2, 4, 9, 90, 165, 83, 153, 165, 90, 3, 1.13895
197, 6, horizontal, attraction, a-b-da, 14, 1, 4, 10, 60, 135, 125, 56, 135, 60, 1, 1.83756
197, 6, horizontal, attraction, a-b-da, 9, 1, 4, 11, 135, 60, 60, 135, 129, 57, 2, 1.70308
197, 6, horizontal, filler, NA, 999, 999, 4, 12, 172, 157, 137, 166, 188, 123, 1, 2.26711
197, 6, horizontal, filler, NA, 999, 999, 4, 13, 161, 180, 96, 172, 97, 90, 1, 1.32368
197, 6, horizontal, attraction, a-b-db, 5, 2, 4, 14, 165, 90, 88, 161, 90, 165, 3, 1.20842
197, 6, horizontal, attraction, a-b-db, 2, 1, 4, 15, 59, 134, 60, 135, 135, 60, 2, 2.50144
197, 6, horizontal, attraction, a-b-db, 9, 2, 4, 16, 90, 165, 86, 157, 165, 90, 3, 1.97727
197, 6, horizontal, attraction, a-b-da, 14, 2, 4, 17, 153, 83, 90, 165, 165, 90, 3, 3.12506
197, 6, horizontal, attraction, a-b-db, 5, 1, 4, 18, 58, 132, 60, 135, 135, 60, 2, 3.80302
197, 6, horizontal, attraction, a-b-da, 9, 2, 4, 19, 165, 90, 90, 165, 157, 86, 2, 1.97888
197, 6, horizontal, attraction, a-b-db, 2, 3, 4, 20, 120, 195, 119, 193, 195, 120, 3, 1.74921
197, 6, horizontal, attraction, a-b-da, 5, 1, 4, 21, 135, 60, 132, 58, 60, 135, 3, 1.32297
197, 6, horizontal, attraction, a-b-da, 5, 2, 4, 22, 165, 90, 161, 88, 90, 165, 3, 2.24811
197, 6, horizontal, filler, NA, 999, 999, 4, 23, 117, 126, 134, 150, 182, 134, 3, 1.49544
197, 6, horizontal, attraction, a-b-db, 5, 3, 4, 24, 120, 195, 195, 120, 117, 190, 2, 1.70212
197, 6, horizontal, attraction, a-b-da, 2, 2, 4, 25, 90, 165, 165, 90, 163, 89, 1, 1.42778
197, 6, horizontal, attraction, a-b-db, 14, 3, 4, 26, 111, 181, 195, 120, 120, 195, 3, 1.62995
197, 6, horizontal, attraction, a-b-db, 9, 3, 4, 27, 120, 195, 195, 120, 114, 186, 1, 4.25589
197, 6, horizontal, attraction, a-b-da, 2, 3, 4, 28, 120, 195, 193, 119, 195, 120, 1, 1.5837
197, 6, horizontal, attraction, a-b-da, 2, 1, 4, 29, 60, 135, 135, 60, 134, 59, 3, 2.52248
197, 6, horizontal, attraction, a-b-db, 2, 2, 4, 30, 90, 165, 89, 163, 165, 90, 2, 1.40746
197, 6, horizontal, filler, NA, 999, 999, 4, 31, 147, 93, 70, 81, 114, 56, 1, 1.47607
197, 6, horizontal, filler, NA, 999, 999, 4, 32, 160, 108, 150, 141, 182, 80, 2, 1.47233
197, 6, horizontal, attraction, a-b-da, 9, 3, 4, 33, 186, 114, 195, 120, 120, 195, 3, 1.5614
197, 6, horizontal, filler, NA, 999, 999, 4, 34, 107, 171, 151, 143, 112, 88, 2, 1.45204
