sub_n, computer_n, disp_cond, effect, set, distance, diag, block_n, trial_n, h1, w1, h2, w2, h3, w3, choice, rt 
227, 5, horizontal, practice, NA, 999, 999, 0, 1, 135, 177, 58, 89, 120, 173, 1, 2.38488
227, 5, horizontal, practice, NA, 999, 999, 0, 2, 131, 115, 72, 104, 183, 135, 3, 1.87635
227, 5, horizontal, practice, NA, 999, 999, 0, 3, 114, 75, 106, 149, 177, 89, 2, 2.13279
227, 5, horizontal, attraction, a-b-db, 9, 1, 1, 1, 60, 135, 57, 129, 135, 60, 1, 3.31849
227, 5, horizontal, filler, NA, 999, 999, 1, 2, 92, 191, 131, 110, 116, 128, 1, 6.26057
227, 5, horizontal, attraction, a-b-da, 2, 3, 1, 3, 193, 119, 195, 120, 120, 195, 2, 4.11787
227, 5, horizontal, attraction, a-b-db, 5, 1, 1, 4, 58, 132, 60, 135, 135, 60, 2, 3.36286
227, 5, horizontal, attraction, a-b-da, 5, 1, 1, 5, 60, 135, 132, 58, 135, 60, 2, 2.92752
227, 5, horizontal, attraction, a-b-da, 9, 2, 1, 6, 165, 90, 157, 86, 90, 165, 1, 2.55869
227, 5, horizontal, attraction, a-b-da, 14, 1, 1, 7, 125, 56, 60, 135, 135, 60, 2, 1.66388
227, 5, horizontal, attraction, a-b-db, 9, 3, 1, 8, 114, 186, 195, 120, 120, 195, 3, 2.85836
227, 5, horizontal, filler, NA, 999, 999, 1, 9, 135, 150, 107, 106, 81, 121, 1, 2.14022
227, 5, horizontal, attraction, a-b-db, 14, 2, 1, 10, 165, 90, 90, 165, 83, 153, 2, 1.34387
227, 5, horizontal, attraction, a-b-db, 2, 2, 1, 11, 165, 90, 90, 165, 89, 163, 2, 2.23638
227, 5, horizontal, attraction, a-b-da, 5, 2, 1, 12, 90, 165, 161, 88, 165, 90, 1, 1.74237
227, 5, horizontal, filler, NA, 999, 999, 1, 13, 70, 102, 186, 159, 67, 129, 2, 4.57982
227, 5, horizontal, attraction, a-b-db, 5, 2, 1, 14, 88, 161, 165, 90, 90, 165, 1, 2.52731
227, 5, horizontal, attraction, a-b-da, 5, 3, 1, 15, 195, 120, 190, 117, 120, 195, 3, 2.45368
227, 5, horizontal, filler, NA, 999, 999, 1, 16, 83, 183, 97, 161, 107, 108, 2, 1.70364
227, 5, horizontal, attraction, a-b-db, 14, 1, 1, 17, 56, 125, 60, 135, 135, 60, 2, 2.31705
227, 5, horizontal, attraction, a-b-db, 2, 1, 1, 18, 60, 135, 135, 60, 59, 134, 2, 4.04351
227, 5, horizontal, filler, NA, 999, 999, 1, 19, 72, 148, 172, 155, 150, 150, 2, 27.06
227, 5, horizontal, filler, NA, 999, 999, 1, 20, 83, 103, 151, 148, 172, 83, 2, 4.4311
227, 5, horizontal, attraction, a-b-db, 14, 3, 1, 21, 195, 120, 120, 195, 111, 181, 2, 1.96694
227, 5, horizontal, attraction, a-b-da, 9, 1, 1, 22, 60, 135, 135, 60, 129, 57, 1, 2.04473
227, 5, horizontal, filler, NA, 999, 999, 1, 23, 144, 115, 109, 105, 146, 161, 3, 2.00512
227, 5, horizontal, attraction, a-b-db, 2, 3, 1, 24, 119, 193, 120, 195, 195, 120, 2, 1.44558
227, 5, horizontal, filler, NA, 999, 999, 1, 25, 94, 60, 184, 127, 153, 65, 2, 1.64822
227, 5, horizontal, attraction, a-b-da, 14, 2, 1, 26, 90, 165, 153, 83, 165, 90, 1, 1.99153
227, 5, horizontal, filler, NA, 999, 999, 1, 27, 190, 60, 91, 165, 161, 103, 3, 2.93106
227, 5, horizontal, attraction, a-b-da, 2, 1, 1, 28, 134, 59, 135, 60, 60, 135, 2, 2.7285
227, 5, horizontal, attraction, a-b-db, 5, 3, 1, 29, 195, 120, 120, 195, 117, 190, 2, 2.03622
227, 5, horizontal, attraction, a-b-da, 9, 3, 1, 30, 186, 114, 120, 195, 195, 120, 2, 2.656
227, 5, horizontal, filler, NA, 999, 999, 1, 31, 59, 187, 163, 151, 148, 75, 2, 1.95398
227, 5, horizontal, attraction, a-b-da, 2, 2, 1, 32, 163, 89, 165, 90, 90, 165, 2, 2.09167
227, 5, horizontal, attraction, a-b-da, 14, 3, 1, 33, 195, 120, 181, 111, 120, 195, 1, 2.05015
227, 5, horizontal, attraction, a-b-db, 9, 2, 1, 34, 86, 157, 165, 90, 90, 165, 3, 1.83487
227, 5, horizontal, attraction, a-b-db, 5, 3, 2, 1, 117, 190, 120, 195, 195, 120, 2, 2.34358
227, 5, horizontal, attraction, a-b-da, 9, 2, 2, 2, 165, 90, 157, 86, 90, 165, 3, 1.82761
227, 5, horizontal, attraction, a-b-db, 5, 1, 2, 3, 135, 60, 60, 135, 58, 132, 2, 1.94048
227, 5, horizontal, attraction, a-b-db, 14, 1, 2, 4, 135, 60, 60, 135, 56, 125, 2, 1.85088
227, 5, horizontal, filler, NA, 999, 999, 2, 5, 164, 136, 171, 177, 131, 157, 2, 1.51389
227, 5, horizontal, attraction, a-b-da, 2, 1, 2, 6, 135, 60, 134, 59, 60, 135, 3, 2.44844
227, 5, horizontal, attraction, a-b-da, 14, 2, 2, 7, 153, 83, 165, 90, 90, 165, 3, 1.75314
227, 5, horizontal, attraction, a-b-da, 2, 2, 2, 8, 165, 90, 90, 165, 163, 89, 2, 1.68549
227, 5, horizontal, attraction, a-b-da, 2, 3, 2, 9, 195, 120, 193, 119, 120, 195, 2, 3.00582
227, 5, horizontal, attraction, a-b-da, 5, 2, 2, 10, 161, 88, 90, 165, 165, 90, 2, 2.27186
227, 5, horizontal, filler, NA, 999, 999, 2, 11, 184, 116, 72, 182, 107, 145, 1, 1.87198
227, 5, horizontal, filler, NA, 999, 999, 2, 12, 110, 143, 56, 57, 166, 139, 3, 1.66593
227, 5, horizontal, attraction, a-b-db, 14, 3, 2, 13, 120, 195, 195, 120, 111, 181, 2, 1.78493
227, 5, horizontal, attraction, a-b-db, 14, 2, 2, 14, 90, 165, 165, 90, 83, 153, 2, 1.70732
227, 5, horizontal, attraction, a-b-db, 2, 1, 2, 15, 60, 135, 59, 134, 135, 60, 2, 1.8504
227, 5, horizontal, filler, NA, 999, 999, 2, 16, 102, 171, 65, 182, 77, 121, 1, 1.39608
227, 5, horizontal, attraction, a-b-db, 9, 1, 2, 17, 135, 60, 60, 135, 57, 129, 2, 2.10863
227, 5, horizontal, attraction, a-b-db, 9, 3, 2, 18, 120, 195, 114, 186, 195, 120, 3, 1.57171
227, 5, horizontal, attraction, a-b-da, 5, 3, 2, 19, 120, 195, 190, 117, 195, 120, 2, 1.86397
227, 5, horizontal, attraction, a-b-da, 9, 1, 2, 20, 60, 135, 129, 57, 135, 60, 1, 1.91274
227, 5, horizontal, attraction, a-b-db, 9, 2, 2, 21, 165, 90, 86, 157, 90, 165, 3, 2.02344
227, 5, horizontal, attraction, a-b-da, 14, 1, 2, 22, 60, 135, 125, 56, 135, 60, 1, 2.77536
227, 5, horizontal, filler, NA, 999, 999, 2, 23, 86, 86, 175, 103, 116, 190, 3, 1.62026
227, 5, horizontal, attraction, a-b-db, 5, 2, 2, 24, 90, 165, 88, 161, 165, 90, 2, 1.47144
227, 5, horizontal, attraction, a-b-da, 5, 1, 2, 25, 132, 58, 60, 135, 135, 60, 3, 1.8616
227, 5, horizontal, filler, NA, 999, 999, 2, 26, 143, 66, 172, 189, 75, 63, 2, 1.56647
227, 5, horizontal, filler, NA, 999, 999, 2, 27, 121, 163, 154, 177, 110, 107, 2, 1.76347
227, 5, horizontal, attraction, a-b-db, 2, 2, 2, 28, 89, 163, 90, 165, 165, 90, 2, 1.35012
227, 5, horizontal, filler, NA, 999, 999, 2, 29, 147, 175, 154, 147, 96, 176, 2, 1.5714
227, 5, horizontal, attraction, a-b-da, 14, 3, 2, 30, 181, 111, 195, 120, 120, 195, 3, 1.44578
227, 5, horizontal, attraction, a-b-da, 9, 3, 2, 31, 186, 114, 195, 120, 120, 195, 3, 1.62379
227, 5, horizontal, filler, NA, 999, 999, 2, 32, 111, 110, 117, 99, 184, 166, 3, 1.37061
227, 5, horizontal, filler, NA, 999, 999, 2, 33, 136, 154, 59, 138, 166, 104, 1, 1.86357
227, 5, horizontal, attraction, a-b-db, 2, 3, 2, 34, 120, 195, 195, 120, 119, 193, 1, 2.32613
227, 5, horizontal, filler, NA, 999, 999, 3, 1, 168, 123, 76, 176, 110, 125, 1, 1.67742
227, 5, horizontal, attraction, a-b-da, 9, 1, 3, 2, 129, 57, 135, 60, 60, 135, 3, 1.7889
227, 5, horizontal, attraction, a-b-da, 9, 2, 3, 3, 90, 165, 157, 86, 165, 90, 1, 1.44783
227, 5, horizontal, attraction, a-b-da, 14, 1, 3, 4, 60, 135, 135, 60, 125, 56, 1, 1.65601
227, 5, horizontal, attraction, a-b-da, 14, 3, 3, 5, 181, 111, 195, 120, 120, 195, 2, 2.25591
227, 5, horizontal, filler, NA, 999, 999, 3, 6, 120, 142, 177, 113, 122, 100, 2, 1.36208
227, 5, horizontal, attraction, a-b-da, 2, 3, 3, 7, 120, 195, 195, 120, 193, 119, 1, 2.16411
227, 5, horizontal, attraction, a-b-db, 5, 2, 3, 8, 165, 90, 90, 165, 88, 161, 2, 2.72261
227, 5, horizontal, attraction, a-b-da, 5, 2, 3, 9, 90, 165, 165, 90, 161, 88, 2, 1.3685
227, 5, horizontal, attraction, a-b-da, 14, 2, 3, 10, 90, 165, 165, 90, 153, 83, 2, 2.12417
227, 5, horizontal, filler, NA, 999, 999, 3, 11, 66, 78, 93, 80, 108, 108, 3, 1.43413
227, 5, horizontal, attraction, a-b-db, 9, 1, 3, 12, 57, 129, 135, 60, 60, 135, 2, 1.56242
227, 5, horizontal, attraction, a-b-da, 9, 3, 3, 13, 195, 120, 186, 114, 120, 195, 1, 2.17616
227, 5, horizontal, attraction, a-b-db, 9, 2, 3, 14, 165, 90, 90, 165, 86, 157, 1, 1.82756
227, 5, horizontal, attraction, a-b-db, 2, 1, 3, 15, 60, 135, 135, 60, 59, 134, 2, 2.25357
227, 5, horizontal, attraction, a-b-db, 14, 2, 3, 16, 83, 153, 90, 165, 165, 90, 2, 1.53335
227, 5, horizontal, attraction, a-b-da, 5, 3, 3, 17, 195, 120, 190, 117, 120, 195, 1, 1.95323
227, 5, horizontal, filler, NA, 999, 999, 3, 18, 135, 86, 117, 151, 85, 174, 2, 3.31906
227, 5, horizontal, attraction, a-b-db, 14, 1, 3, 19, 135, 60, 56, 125, 60, 135, 1, 3.54875
227, 5, horizontal, attraction, a-b-db, 5, 1, 3, 20, 60, 135, 135, 60, 58, 132, 2, 1.42586
227, 5, horizontal, attraction, a-b-da, 2, 1, 3, 21, 134, 59, 60, 135, 135, 60, 2, 1.85269
227, 5, horizontal, attraction, a-b-db, 5, 3, 3, 22, 117, 190, 120, 195, 195, 120, 2, 1.98063
227, 5, horizontal, filler, NA, 999, 999, 3, 23, 195, 164, 95, 144, 126, 193, 1, 1.63029
227, 5, horizontal, filler, NA, 999, 999, 3, 24, 166, 194, 73, 86, 101, 77, 1, 1.17066
227, 5, horizontal, filler, NA, 999, 999, 3, 25, 65, 146, 100, 180, 169, 85, 2, 2.34865
227, 5, horizontal, filler, NA, 999, 999, 3, 26, 121, 87, 147, 81, 81, 136, 3, 1.81146
227, 5, horizontal, filler, NA, 999, 999, 3, 27, 150, 144, 191, 161, 128, 189, 2, 2.81236
227, 5, horizontal, attraction, a-b-da, 5, 1, 3, 28, 135, 60, 60, 135, 132, 58, 2, 1.44788
227, 5, horizontal, attraction, a-b-da, 2, 2, 3, 29, 163, 89, 165, 90, 90, 165, 2, 1.75139
227, 5, horizontal, attraction, a-b-db, 14, 3, 3, 30, 195, 120, 111, 181, 120, 195, 2, 1.39491
227, 5, horizontal, filler, NA, 999, 999, 3, 31, 172, 152, 77, 193, 160, 98, 1, 1.41663
227, 5, horizontal, attraction, a-b-db, 2, 2, 3, 32, 89, 163, 165, 90, 90, 165, 3, 1.92468
227, 5, horizontal, attraction, a-b-db, 9, 3, 3, 33, 114, 186, 120, 195, 195, 120, 3, 1.86235
227, 5, horizontal, attraction, a-b-db, 2, 3, 3, 34, 120, 195, 195, 120, 119, 193, 2, 2.00737
227, 5, horizontal, filler, NA, 999, 999, 4, 1, 107, 125, 167, 162, 170, 159, 2, 1.4908
227, 5, horizontal, attraction, a-b-da, 5, 3, 4, 2, 195, 120, 190, 117, 120, 195, 3, 2.80984
227, 5, horizontal, attraction, a-b-db, 5, 1, 4, 3, 60, 135, 135, 60, 58, 132, 2, 1.53273
227, 5, horizontal, attraction, a-b-db, 9, 1, 4, 4, 60, 135, 135, 60, 57, 129, 2, 1.68185
227, 5, horizontal, filler, NA, 999, 999, 4, 5, 77, 96, 105, 193, 145, 177, 3, 1.4728
227, 5, horizontal, attraction, a-b-db, 2, 3, 4, 6, 119, 193, 120, 195, 195, 120, 2, 2.36218
227, 5, horizontal, attraction, a-b-db, 9, 3, 4, 7, 195, 120, 114, 186, 120, 195, 1, 1.85986
227, 5, horizontal, filler, NA, 999, 999, 4, 8, 151, 115, 175, 177, 112, 110, 2, 1.32554
227, 5, horizontal, filler, NA, 999, 999, 4, 9, 74, 189, 189, 145, 107, 80, 2, 1.45064
227, 5, horizontal, filler, NA, 999, 999, 4, 10, 101, 60, 120, 129, 145, 174, 3, 1.48413
227, 5, horizontal, filler, NA, 999, 999, 4, 11, 80, 86, 90, 83, 160, 72, 3, 1.86903
227, 5, horizontal, attraction, a-b-da, 5, 2, 4, 12, 90, 165, 161, 88, 165, 90, 1, 1.69082
227, 5, horizontal, attraction, a-b-da, 2, 3, 4, 13, 120, 195, 193, 119, 195, 120, 1, 1.82534
227, 5, horizontal, filler, NA, 999, 999, 4, 14, 185, 187, 108, 144, 195, 133, 1, 1.69156
227, 5, horizontal, attraction, a-b-db, 9, 2, 4, 15, 165, 90, 90, 165, 86, 157, 2, 1.4355
227, 5, horizontal, attraction, a-b-da, 2, 1, 4, 16, 135, 60, 60, 135, 134, 59, 2, 1.33292
227, 5, horizontal, attraction, a-b-db, 14, 3, 4, 17, 120, 195, 195, 120, 111, 181, 1, 1.52212
227, 5, horizontal, attraction, a-b-da, 14, 2, 4, 18, 153, 83, 90, 165, 165, 90, 3, 1.73829
227, 5, horizontal, attraction, a-b-db, 14, 2, 4, 19, 83, 153, 165, 90, 90, 165, 2, 1.16605
227, 5, horizontal, filler, NA, 999, 999, 4, 20, 63, 194, 118, 188, 180, 92, 2, 1.83587
227, 5, horizontal, attraction, a-b-da, 9, 1, 4, 21, 60, 135, 129, 57, 135, 60, 1, 2.25977
227, 5, horizontal, attraction, a-b-db, 2, 2, 4, 22, 90, 165, 89, 163, 165, 90, 1, 1.28318
227, 5, horizontal, filler, NA, 999, 999, 4, 23, 159, 67, 112, 94, 156, 87, 3, 1.5156
227, 5, horizontal, attraction, a-b-db, 5, 3, 4, 24, 120, 195, 117, 190, 195, 120, 2, 2.56316
227, 5, horizontal, attraction, a-b-da, 2, 2, 4, 25, 165, 90, 90, 165, 163, 89, 1, 1.79097
227, 5, horizontal, attraction, a-b-da, 14, 1, 4, 26, 135, 60, 60, 135, 125, 56, 1, 1.63555
227, 5, horizontal, attraction, a-b-da, 9, 2, 4, 27, 90, 165, 157, 86, 165, 90, 1, 2.03349
227, 5, horizontal, attraction, a-b-da, 5, 1, 4, 28, 132, 58, 60, 135, 135, 60, 2, 1.92369
227, 5, horizontal, attraction, a-b-da, 14, 3, 4, 29, 181, 111, 120, 195, 195, 120, 2, 1.50537
227, 5, horizontal, attraction, a-b-db, 5, 2, 4, 30, 165, 90, 88, 161, 90, 165, 1, 1.48034
227, 5, horizontal, attraction, a-b-db, 2, 1, 4, 31, 59, 134, 60, 135, 135, 60, 2, 1.71223
227, 5, horizontal, filler, NA, 999, 999, 4, 32, 119, 72, 165, 75, 166, 96, 3, 1.40448
227, 5, horizontal, attraction, a-b-da, 9, 3, 4, 33, 120, 195, 186, 114, 195, 120, 1, 1.6408
227, 5, horizontal, attraction, a-b-db, 14, 1, 4, 34, 60, 135, 135, 60, 56, 125, 2, 1.64903
