sub_n, computer_n, disp_cond, effect, set, distance, diag, block_n, trial_n, h1, w1, h2, w2, h3, w3, choice, rt 
19, 5, horizontal, practice, NA, 999, 999, 0, 1, 80, 194, 93, 80, 67, 116, 1, 4.22675
19, 5, horizontal, practice, NA, 999, 999, 0, 2, 169, 123, 163, 75, 96, 121, 1, 2.22794
19, 5, horizontal, practice, NA, 999, 999, 0, 3, 58, 175, 184, 128, 179, 132, 2, 2.10551
19, 5, horizontal, attraction, a-b-db, 5, 1, 1, 1, 60, 135, 58, 132, 135, 60, 1, 3.14946
19, 5, horizontal, attraction, a-b-da, 14, 3, 1, 2, 181, 111, 120, 195, 195, 120, 2, 4.13045
19, 5, horizontal, attraction, a-b-da, 9, 3, 1, 3, 120, 195, 195, 120, 186, 114, 1, 3.295
19, 5, horizontal, attraction, a-b-da, 14, 1, 1, 4, 125, 56, 60, 135, 135, 60, 2, 3.58471
19, 5, horizontal, filler, NA, 999, 999, 1, 5, 113, 100, 154, 187, 134, 144, 2, 2.06718
19, 5, horizontal, attraction, a-b-db, 9, 1, 1, 6, 57, 129, 60, 135, 135, 60, 1, 6.28925
19, 5, horizontal, attraction, a-b-db, 9, 3, 1, 7, 120, 195, 195, 120, 114, 186, 1, 4.48967
19, 5, horizontal, attraction, a-b-db, 14, 3, 1, 8, 195, 120, 111, 181, 120, 195, 3, 2.30602
19, 5, horizontal, attraction, a-b-db, 5, 3, 1, 9, 117, 190, 120, 195, 195, 120, 2, 4.52633
19, 5, horizontal, attraction, a-b-db, 2, 1, 1, 10, 60, 135, 59, 134, 135, 60, 3, 1.81438
19, 5, horizontal, attraction, a-b-da, 9, 1, 1, 11, 60, 135, 129, 57, 135, 60, 3, 4.9121
19, 5, horizontal, attraction, a-b-db, 9, 2, 1, 12, 165, 90, 90, 165, 86, 157, 2, 2.81459
19, 5, horizontal, attraction, a-b-da, 5, 3, 1, 13, 195, 120, 120, 195, 190, 117, 3, 3.63033
19, 5, horizontal, attraction, a-b-da, 5, 2, 1, 14, 90, 165, 161, 88, 165, 90, 1, 1.6658
19, 5, horizontal, attraction, a-b-da, 14, 2, 1, 15, 165, 90, 153, 83, 90, 165, 3, 1.83253
19, 5, horizontal, attraction, a-b-da, 2, 1, 1, 16, 134, 59, 135, 60, 60, 135, 3, 1.30051
19, 5, horizontal, attraction, a-b-da, 2, 2, 1, 17, 163, 89, 165, 90, 90, 165, 3, 1.28869
19, 5, horizontal, filler, NA, 999, 999, 1, 18, 85, 174, 72, 150, 148, 193, 3, 2.12071
19, 5, horizontal, attraction, a-b-da, 5, 1, 1, 19, 132, 58, 135, 60, 60, 135, 3, 1.69781
19, 5, horizontal, attraction, a-b-db, 5, 2, 1, 20, 88, 161, 165, 90, 90, 165, 2, 5.11839
19, 5, horizontal, filler, NA, 999, 999, 1, 21, 145, 57, 150, 195, 151, 117, 2, 1.82653
19, 5, horizontal, attraction, a-b-da, 2, 3, 1, 22, 120, 195, 195, 120, 193, 119, 1, 2.25251
19, 5, horizontal, attraction, a-b-da, 9, 2, 1, 23, 165, 90, 90, 165, 157, 86, 3, 1.83959
19, 5, horizontal, filler, NA, 999, 999, 1, 24, 146, 170, 78, 103, 66, 57, 1, 1.37389
19, 5, horizontal, filler, NA, 999, 999, 1, 25, 93, 86, 109, 100, 97, 130, 3, 2.61961
19, 5, horizontal, attraction, a-b-db, 2, 2, 1, 26, 165, 90, 90, 165, 89, 163, 2, 2.99021
19, 5, horizontal, filler, NA, 999, 999, 1, 27, 186, 171, 170, 63, 162, 66, 1, 1.45014
19, 5, horizontal, filler, NA, 999, 999, 1, 28, 109, 195, 59, 186, 119, 181, 3, 2.66556
19, 5, horizontal, attraction, a-b-db, 2, 3, 1, 29, 195, 120, 120, 195, 119, 193, 3, 3.48326
19, 5, horizontal, filler, NA, 999, 999, 1, 30, 155, 61, 121, 70, 120, 78, 3, 4.17586
19, 5, horizontal, attraction, a-b-db, 14, 2, 1, 31, 165, 90, 83, 153, 90, 165, 3, 9.24656
19, 5, horizontal, filler, NA, 999, 999, 1, 32, 151, 195, 128, 100, 119, 115, 1, 4.10904
19, 5, horizontal, filler, NA, 999, 999, 1, 33, 63, 110, 168, 105, 112, 88, 2, 2.84469
19, 5, horizontal, attraction, a-b-db, 14, 1, 1, 34, 60, 135, 56, 125, 135, 60, 1, 4.77327
19, 5, horizontal, filler, NA, 999, 999, 2, 1, 88, 148, 169, 115, 148, 154, 3, 2.13713
19, 5, horizontal, filler, NA, 999, 999, 2, 2, 104, 176, 142, 108, 182, 97, 1, 5.76868
19, 5, horizontal, filler, NA, 999, 999, 2, 3, 149, 143, 171, 192, 189, 106, 2, 1.8437
19, 5, horizontal, attraction, a-b-db, 14, 3, 2, 4, 120, 195, 111, 181, 195, 120, 1, 3.06649
19, 5, horizontal, attraction, a-b-da, 14, 1, 2, 5, 60, 135, 135, 60, 125, 56, 1, 2.1562
19, 5, horizontal, filler, NA, 999, 999, 2, 6, 192, 112, 87, 184, 138, 192, 3, 1.46454
19, 5, horizontal, attraction, a-b-da, 5, 1, 2, 7, 132, 58, 60, 135, 135, 60, 2, 3.43974
19, 5, horizontal, filler, NA, 999, 999, 2, 8, 172, 76, 147, 87, 65, 104, 2, 1.48968
19, 5, horizontal, attraction, a-b-db, 5, 1, 2, 9, 60, 135, 135, 60, 58, 132, 3, 3.0584
19, 5, horizontal, attraction, a-b-da, 9, 1, 2, 10, 129, 57, 60, 135, 135, 60, 2, 2.75357
19, 5, horizontal, attraction, a-b-db, 2, 1, 2, 11, 59, 134, 135, 60, 60, 135, 3, 3.17445
19, 5, horizontal, attraction, a-b-db, 9, 2, 2, 12, 165, 90, 86, 157, 90, 165, 3, 1.94637
19, 5, horizontal, attraction, a-b-db, 5, 2, 2, 13, 88, 161, 90, 165, 165, 90, 3, 1.76132
19, 5, horizontal, filler, NA, 999, 999, 2, 14, 104, 121, 157, 159, 187, 134, 2, 2.02961
19, 5, horizontal, attraction, a-b-da, 9, 2, 2, 15, 165, 90, 157, 86, 90, 165, 1, 3.69945
19, 5, horizontal, attraction, a-b-da, 2, 3, 2, 16, 195, 120, 120, 195, 193, 119, 1, 2.55643
19, 5, horizontal, filler, NA, 999, 999, 2, 17, 169, 112, 170, 129, 103, 145, 2, 4.35342
19, 5, horizontal, attraction, a-b-da, 14, 2, 2, 18, 90, 165, 153, 83, 165, 90, 1, 1.9015
19, 5, horizontal, attraction, a-b-db, 9, 1, 2, 19, 57, 129, 60, 135, 135, 60, 3, 1.85233
19, 5, horizontal, attraction, a-b-da, 2, 2, 2, 20, 90, 165, 163, 89, 165, 90, 1, 2.9816
19, 5, horizontal, filler, NA, 999, 999, 2, 21, 104, 177, 126, 179, 135, 149, 2, 2.697
19, 5, horizontal, attraction, a-b-da, 14, 3, 2, 22, 120, 195, 181, 111, 195, 120, 1, 1.85558
19, 5, horizontal, attraction, a-b-db, 2, 3, 2, 23, 119, 193, 120, 195, 195, 120, 3, 2.62537
19, 5, horizontal, filler, NA, 999, 999, 2, 24, 191, 132, 121, 194, 192, 58, 1, 1.28278
19, 5, horizontal, attraction, a-b-da, 2, 1, 2, 25, 135, 60, 60, 135, 134, 59, 2, 2.77698
19, 5, horizontal, filler, NA, 999, 999, 2, 26, 77, 114, 99, 173, 171, 154, 3, 1.43623
19, 5, horizontal, attraction, a-b-db, 14, 1, 2, 27, 60, 135, 135, 60, 56, 125, 1, 2.62301
19, 5, horizontal, attraction, a-b-db, 9, 3, 2, 28, 195, 120, 120, 195, 114, 186, 1, 1.874
19, 5, horizontal, attraction, a-b-db, 14, 2, 2, 29, 90, 165, 165, 90, 83, 153, 1, 1.57571
19, 5, horizontal, attraction, a-b-da, 5, 3, 2, 30, 195, 120, 120, 195, 190, 117, 2, 1.55694
19, 5, horizontal, attraction, a-b-db, 5, 3, 2, 31, 120, 195, 117, 190, 195, 120, 1, 2.85622
19, 5, horizontal, attraction, a-b-da, 5, 2, 2, 32, 165, 90, 161, 88, 90, 165, 1, 1.96125
19, 5, horizontal, attraction, a-b-da, 9, 3, 2, 33, 120, 195, 195, 120, 186, 114, 1, 1.96549
19, 5, horizontal, attraction, a-b-db, 2, 2, 2, 34, 165, 90, 90, 165, 89, 163, 3, 4.60298
19, 5, horizontal, attraction, a-b-da, 2, 2, 3, 1, 165, 90, 90, 165, 163, 89, 1, 1.42185
19, 5, horizontal, attraction, a-b-db, 14, 3, 3, 2, 120, 195, 195, 120, 111, 181, 1, 1.52677
19, 5, horizontal, attraction, a-b-da, 9, 2, 3, 3, 157, 86, 90, 165, 165, 90, 2, 2.02691
19, 5, horizontal, filler, NA, 999, 999, 3, 4, 177, 92, 74, 56, 109, 186, 3, 1.98121
19, 5, horizontal, attraction, a-b-db, 9, 2, 3, 5, 165, 90, 86, 157, 90, 165, 1, 1.65011
19, 5, horizontal, attraction, a-b-da, 14, 2, 3, 6, 90, 165, 165, 90, 153, 83, 1, 1.78819
19, 5, horizontal, attraction, a-b-da, 5, 2, 3, 7, 90, 165, 161, 88, 165, 90, 1, 1.95771
19, 5, horizontal, attraction, a-b-da, 2, 3, 3, 8, 120, 195, 193, 119, 195, 120, 1, 1.52203
19, 5, horizontal, attraction, a-b-db, 14, 2, 3, 9, 83, 153, 90, 165, 165, 90, 2, 2.08217
19, 5, horizontal, attraction, a-b-db, 5, 3, 3, 10, 117, 190, 120, 195, 195, 120, 2, 1.15289
19, 5, horizontal, filler, NA, 999, 999, 3, 11, 63, 178, 152, 189, 112, 119, 2, 1.26885
19, 5, horizontal, attraction, a-b-da, 14, 1, 3, 12, 60, 135, 135, 60, 125, 56, 1, 2.38241
19, 5, horizontal, attraction, a-b-da, 9, 3, 3, 13, 120, 195, 186, 114, 195, 120, 1, 1.69545
19, 5, horizontal, filler, NA, 999, 999, 3, 14, 61, 90, 60, 60, 172, 83, 3, 2.53558
19, 5, horizontal, attraction, a-b-db, 2, 2, 3, 15, 165, 90, 89, 163, 90, 165, 1, 2.46958
19, 5, horizontal, attraction, a-b-db, 5, 2, 3, 16, 88, 161, 90, 165, 165, 90, 3, 1.76422
19, 5, horizontal, attraction, a-b-da, 14, 3, 3, 17, 195, 120, 120, 195, 181, 111, 2, 1.39238
19, 5, horizontal, attraction, a-b-da, 2, 1, 3, 18, 134, 59, 135, 60, 60, 135, 2, 2.13172
19, 5, horizontal, attraction, a-b-db, 9, 3, 3, 19, 114, 186, 195, 120, 120, 195, 2, 2.53662
19, 5, horizontal, attraction, a-b-da, 5, 1, 3, 20, 135, 60, 60, 135, 132, 58, 1, 1.55035
19, 5, horizontal, filler, NA, 999, 999, 3, 21, 127, 142, 142, 58, 113, 87, 1, 1.56395
19, 5, horizontal, attraction, a-b-db, 5, 1, 3, 22, 60, 135, 58, 132, 135, 60, 1, 3.51062
19, 5, horizontal, filler, NA, 999, 999, 3, 23, 187, 138, 104, 83, 80, 99, 1, 2.04568
19, 5, horizontal, attraction, a-b-db, 14, 1, 3, 24, 135, 60, 56, 125, 60, 135, 2, 2.86087
19, 5, horizontal, filler, NA, 999, 999, 3, 25, 179, 60, 97, 182, 190, 144, 3, 1.27081
19, 5, horizontal, filler, NA, 999, 999, 3, 26, 78, 174, 148, 96, 139, 119, 3, 1.47239
19, 5, horizontal, attraction, a-b-db, 9, 1, 3, 27, 60, 135, 57, 129, 135, 60, 1, 1.42139
19, 5, horizontal, attraction, a-b-db, 2, 1, 3, 28, 60, 135, 59, 134, 135, 60, 2, 1.98519
19, 5, horizontal, filler, NA, 999, 999, 3, 29, 130, 82, 94, 147, 99, 183, 3, 1.77916
19, 5, horizontal, attraction, a-b-da, 5, 3, 3, 30, 195, 120, 120, 195, 190, 117, 3, 4.16
19, 5, horizontal, filler, NA, 999, 999, 3, 31, 182, 155, 67, 145, 151, 147, 3, 1.69321
19, 5, horizontal, attraction, a-b-da, 9, 1, 3, 32, 135, 60, 60, 135, 129, 57, 2, 1.93335
19, 5, horizontal, attraction, a-b-db, 2, 3, 3, 33, 195, 120, 120, 195, 119, 193, 2, 3.00832
19, 5, horizontal, filler, NA, 999, 999, 3, 34, 78, 173, 158, 132, 105, 170, 2, 1.45883
19, 5, horizontal, filler, NA, 999, 999, 4, 1, 121, 173, 88, 147, 71, 190, 1, 1.37107
19, 5, horizontal, attraction, a-b-db, 2, 2, 4, 2, 165, 90, 89, 163, 90, 165, 3, 1.56146
19, 5, horizontal, attraction, a-b-da, 5, 2, 4, 3, 90, 165, 165, 90, 161, 88, 1, 1.38916
19, 5, horizontal, attraction, a-b-da, 2, 3, 4, 4, 195, 120, 193, 119, 120, 195, 3, 1.55087
19, 5, horizontal, attraction, a-b-db, 5, 2, 4, 5, 90, 165, 88, 161, 165, 90, 3, 1.63821
19, 5, horizontal, attraction, a-b-da, 5, 3, 4, 6, 120, 195, 195, 120, 190, 117, 1, 4.13497
19, 5, horizontal, attraction, a-b-db, 14, 2, 4, 7, 165, 90, 83, 153, 90, 165, 3, 1.61892
19, 5, horizontal, filler, NA, 999, 999, 4, 8, 173, 99, 171, 109, 153, 165, 3, 1.44423
19, 5, horizontal, attraction, a-b-da, 14, 2, 4, 9, 153, 83, 165, 90, 90, 165, 3, 1.43831
19, 5, horizontal, attraction, a-b-db, 2, 3, 4, 10, 195, 120, 120, 195, 119, 193, 1, 1.37673
19, 5, horizontal, attraction, a-b-da, 9, 3, 4, 11, 186, 114, 120, 195, 195, 120, 2, 1.61098
19, 5, horizontal, attraction, a-b-db, 5, 1, 4, 12, 135, 60, 60, 135, 58, 132, 2, 1.95077
19, 5, horizontal, attraction, a-b-db, 2, 1, 4, 13, 59, 134, 135, 60, 60, 135, 1, 1.77208
19, 5, horizontal, attraction, a-b-da, 14, 3, 4, 14, 195, 120, 120, 195, 181, 111, 2, 1.9908
19, 5, horizontal, filler, NA, 999, 999, 4, 15, 193, 183, 109, 116, 92, 124, 1, 1.16371
19, 5, horizontal, filler, NA, 999, 999, 4, 16, 165, 150, 62, 167, 186, 106, 1, 1.54192
19, 5, horizontal, attraction, a-b-db, 14, 3, 4, 17, 120, 195, 111, 181, 195, 120, 1, 2.39568
19, 5, horizontal, filler, NA, 999, 999, 4, 18, 175, 188, 122, 110, 111, 138, 1, 1.08715
19, 5, horizontal, filler, NA, 999, 999, 4, 19, 70, 103, 180, 110, 155, 74, 2, 1.47192
19, 5, horizontal, attraction, a-b-da, 9, 2, 4, 20, 165, 90, 90, 165, 157, 86, 3, 1.89362
19, 5, horizontal, filler, NA, 999, 999, 4, 21, 114, 183, 80, 160, 56, 92, 1, 1.50191
19, 5, horizontal, filler, NA, 999, 999, 4, 22, 84, 162, 56, 117, 155, 168, 3, 1.57091
19, 5, horizontal, attraction, a-b-db, 5, 3, 4, 23, 117, 190, 120, 195, 195, 120, 3, 1.57757
19, 5, horizontal, attraction, a-b-db, 9, 1, 4, 24, 57, 129, 60, 135, 135, 60, 2, 1.96541
19, 5, horizontal, attraction, a-b-da, 2, 1, 4, 25, 135, 60, 60, 135, 134, 59, 2, 2.46615
19, 5, horizontal, filler, NA, 999, 999, 4, 26, 80, 110, 134, 61, 161, 170, 3, 1.21565
19, 5, horizontal, attraction, a-b-db, 9, 3, 4, 27, 195, 120, 114, 186, 120, 195, 1, 1.4591
19, 5, horizontal, attraction, a-b-da, 2, 2, 4, 28, 163, 89, 165, 90, 90, 165, 2, 3.74754
19, 5, horizontal, filler, NA, 999, 999, 4, 29, 181, 119, 86, 59, 79, 123, 1, 1.45656
19, 5, horizontal, attraction, a-b-db, 14, 1, 4, 30, 135, 60, 56, 125, 60, 135, 3, 2.79175
19, 5, horizontal, attraction, a-b-da, 9, 1, 4, 31, 60, 135, 129, 57, 135, 60, 3, 2.62739
19, 5, horizontal, attraction, a-b-db, 9, 2, 4, 32, 165, 90, 86, 157, 90, 165, 3, 2.69286
19, 5, horizontal, attraction, a-b-da, 5, 1, 4, 33, 132, 58, 135, 60, 60, 135, 2, 1.78964
19, 5, horizontal, attraction, a-b-da, 14, 1, 4, 34, 60, 135, 125, 56, 135, 60, 1, 1.75144
